Folder: campaign1/UV-Vis data/Reflection (part 5)

File: 56-3SbBr-7BiI.Sample.Raw.csv
nm, %R
1100, 16.637
1095, 16.7081
1090, 16.7693
1085, 16.82
1080, 16.8837
1075, 16.938
1070, 16.9865
1065, 17.0569
1060, 17.1058
1055, 17.1616
1050, 17.2207
1045, 17.2642
1040, 17.3202
1035, 17.396
1030, 17.446
1025, 17.4892
1020, 17.5466
1015, 17.596
1010, 17.652
1005, 17.7107
1000, 17.7711
995, 17.8137
990, 17.8858
985, 17.9405
980, 18.0017
975, 18.0558
970, 18.1176
965, 18.197
960, 18.2403
955, 18.3025
950, 18.3572
945, 18.4184
940, 18.4757
935, 18.536
930, 18.5887
925, 18.6474
920, 18.6865
915, 18.7635
910, 18.8339
905, 18.8883
900, 18.9519
895, 19.019
890, 19.0392
885, 19.1199
880, 19.1581
875, 19.217
870, 19.297
865, 19.3046
860, 19.381
855, 19.381
850, 19.381
845, 19.381
840, 19.381
835, 19.381
830, 19.381
825, 19.381
820, 19.381
815, 19.381
810, 19.381
805, 19.381
800, 19.381
795, 19.381
790, 19.381
785, 19.381
780, 19.8427
775, 21.6194
770, 21.5167
765, 21.5708
760, 21.5509
755, 21.3521
750, 21.2038
745, 21.138
740, 21.1368
735, 21.009
730, 20.9489
725, 20.9319
720, 20.8824
715, 20.7731
710, 20.7495
705, 20.679
700, 20.584
695, 20.4677
690, 20.3114
685, 20.4508
680, 21.4241
675, 20.8951
670, 20.9701
665, 21.0769
660, 21.2148
655, 21.3464
650, 21.4799
645, 21.6389
640, 21.6952
635, 21.8329
630, 21.9745
625, 22.099
620, 22.2057
615, 22.2263
610, 22.2723
605, 22.2972
600, 22.3239
595, 22.399
590, 22.3085
585, 22.256
580, 22.1689
575, 22.1289
570, 22.0983
565, 22.1832
560, 22.2526
555, 21.2817
550, 20.6472
545, 20.3659
540, 20.0714
535, 19.8099
530, 19.6057
525, 19.5024
520, 19.5735
515, 19.8607
510, 20.3043
505, 20.392
500, 19.604
495, 17.8998
490, 16.0993
485, 15.642
480, 17.3753
475, 18.2443
470, 19.1066
465, 19.7618
460, 19.8325
455, 19.4132
450, 18.6336
445, 17.7816
440, 18.2682
435, 18.7164
430, 18.9867
425, 19.3115
420, 19.8266
415, 20.3602
410, 20.5226
405, 20.2241
400, 19.9854
395, 19.6652
390, 19.4533
385, 19.5694
380, 18.4562
375, 18.4562
370, 18.4562
365, 18.4562
360, 18.4562
355, 18.4562
350, 18.4562
345, 18.4562
340, 18.4562
335, 18.4562
330, 18.4562
325, 18.4562
320, 18.4562
315, 18.4562
310, 18.4562
305, 18.4562
300, 18.4562

File: 57-4SbBr-6BiI.Sample.Raw.csv
nm, %R
1100, 15.427
1095, 15.4735
1090, 15.5375
1085, 15.5809
1080, 15.6201
1075, 15.6627
1070, 15.7031
1065, 15.7485
1060, 15.7952
1055, 15.8327
1050, 15.8641
1045, 15.913
1040, 15.9644
1035, 16.0074
1030, 16.0502
1025, 16.0923
1020, 16.1284
1015, 16.1606
1010, 16.2012
1005, 16.2551
1000, 16.2973
995, 16.3192
990, 16.3864
985, 16.4221
980, 16.4588
975, 16.4973
970, 16.5594
965, 16.601
960, 16.6385
955, 16.6886
950, 16.7347
945, 16.7772
940, 16.8163
935, 16.8619
930, 16.9034
925, 16.9369
920, 16.9719
915, 17.0165
910, 17.055
905, 17.0927
900, 17.1393
895, 17.1756
890, 17.2301
885, 17.2838
880, 17.315
875, 17.366
870, 17.4303
865, 17.4287
860, 17.4833
855, 17.4833
850, 17.4833
845, 17.4833
840, 17.4833
835, 17.4833
830, 17.4833
825, 17.4833
820, 17.4833
815, 17.4833
810, 17.4833
805, 17.4833
800, 17.4833
795, 17.4833
790, 17.2591
785, 16.0188
780, 16.7214
775, 18.5327
770, 18.6248
765, 18.6492
760, 18.6266
755, 18.6449
750, 18.6624
745, 18.6627
740, 18.7976
735, 18.6799
730, 18.6573
725, 18.8106
720, 18.754
715, 18.6783
710, 18.7518
705, 18.7258
700, 18.7398
695, 18.7727
690, 18.7813
685, 18.7563
680, 19.0206
675, 19.0998
670, 19.1369
665, 19.1677
660, 19.1929
655, 19.2702
650, 19.2801
645, 19.3574
640, 19.3214
635, 19.3647
630, 19.4111
625, 19.3828
620, 19.3885
615, 19.3679
610, 19.3567
605, 19.3018
600, 19.2811
595, 19.2318
590, 19.1161
585, 19.0332
580, 18.9083
575, 18.7483
570, 18.5863
565, 18.3824
560, 18.1796
555, 18.0276
550, 17.8473
545, 17.6203
540, 17.4069
535, 17.1468
530, 16.8679
525, 16.5556
520, 16.1954
515, 15.832
510, 15.5075
505, 15.2546
500, 15.2058
495, 15.2935
490, 15.4548
485, 15.4782
480, 15.3141
475, 15.2722
470, 15.2157
465, 15.2124
460, 15.3494
455, 15.4626
450, 15.5974
445, 15.8189
440, 15.8611
435, 16.0477
430, 16.251
425, 16.4962
420, 16.8105
415, 17.1312
410, 17.5351
405, 17.546
400, 17.6088
395, 17.6247
390, 17.6949
385, 18.1947
380, 17.5186
375, 17.5186
370, 17.5186
365, 17.5186
360, 17.5186
355, 17.5186
350, 17.5186
345, 17.5186
340, 17.5186
335, 17.5186
330, 17.5186
325, 17.5186
320, 17.5186
315, 17.5186
310, 17.5186
305, 17.5186
300, 17.5186

File: 58-5SbBr-5BiI.Sample.Raw.csv
nm, %R
1100, 14.2377
1095, 14.2854
1090, 14.3379
1085, 14.3835
1080, 14.4449
1075, 14.4852
1070, 14.5155
1065, 14.5692
1060, 14.6169
1055, 14.6531
1050, 14.7005
1045, 14.7475
1040, 14.791
1035, 14.8562
1030, 14.888
1025, 14.9248
1020, 14.9806
1015, 15.0248
1010, 15.0709
1005, 15.1271
1000, 15.1722
995, 15.206
990, 15.2662
985, 15.3197
980, 15.3684
975, 15.4294
970, 15.4797
965, 15.5338
960, 15.5835
955, 15.6377
950, 15.6875
945, 15.7344
940, 15.7804
935, 15.8332
930, 15.8868
925, 15.9427
920, 15.9828
915, 16.0443
910, 16.102
905, 16.1394
900, 16.2018
895, 16.2386
890, 16.29
885, 16.3557
880, 16.4012
875, 16.447
870, 16.5203
865, 16.5316
860, 16.5748
855, 16.5748
850, 16.5748
845, 16.5748
840, 16.5748
835, 16.5748
830, 16.5748
825, 16.5748
820, 16.5748
815, 16.5748
810, 16.5748
805, 16.5748
800, 16.5748
795, 16.5748
790, 16.5748
785, 16.5748
780, 17.0526
775, 18.8912
770, 18.7849
765, 18.8409
760, 18.8203
755, 18.6145
750, 18.4611
745, 18.393
740, 18.3917
735, 18.2595
730, 18.1973
725, 18.1797
720, 18.1285
715, 18.0154
710, 17.9909
705, 17.918
700, 17.8197
695, 17.6994
690, 17.5376
685, 17.3507
680, 17.5875
675, 17.9236
670, 17.9994
665, 17.8863
660, 18.1053
655, 18.2103
650, 18.4016
645, 18.5416
640, 18.6596
635, 18.9284
630, 19.0906
625, 19.2635
620, 19.4324
615, 19.5635
610, 19.7464
605, 19.8283
600, 19.9927
595, 20.1253
590, 20.2182
585, 20.2767
580, 20.3314
575, 20.4443
570, 20.623
565, 21.0249
560, 21.3343
555, 20.2744
550, 19.6995
545, 19.5472
540, 19.3963
535, 19.2394
530, 19.1545
525, 19.1488
520, 19.2981
515, 19.7339
510, 20.2623
505, 20.2261
500, 19.0903
495, 16.668
490, 14.1361
485, 13.517
480, 16.0426
475, 17.3074
470, 18.531
465, 19.3684
460, 19.5059
455, 18.8969
450, 17.8881
445, 16.5926
440, 17.003
435, 17.5613
430, 17.8882
425, 18.2411
420, 18.3347
415, 18.4671
410, 18.5974
405, 18.2917
400, 18.0472
395, 17.7193
390, 17.5022
385, 17.6211
380, 16.481
375, 16.481
370, 16.481
365, 16.481
360, 16.481
355, 16.481
350, 16.481
345, 16.481
340, 16.481
335, 16.481
330, 16.481
325, 16.481
320, 16.481
315, 16.481
310, 16.481
305, 16.481
300, 16.481

File: 59-6SbBr-4BiI.Sample.Raw.csv
nm, %R
1100, 13.4642
1095, 13.5118
1090, 13.5657
1085, 13.6007
1080, 13.6454
1075, 13.6804
1070, 13.7112
1065, 13.7569
1060, 13.7894
1055, 13.8244
1050, 13.8633
1045, 13.9019
1040, 13.9438
1035, 13.9927
1030, 14.0228
1025, 14.0562
1020, 14.0952
1015, 14.1339
1010, 14.1686
1005, 14.2112
1000, 14.254
995, 14.2807
990, 14.3213
985, 14.3664
980, 14.4039
975, 14.4515
970, 14.4922
965, 14.5347
960, 14.5757
955, 14.6245
950, 14.6699
945, 14.7096
940, 14.7425
935, 14.804
930, 14.832
925, 14.8814
920, 14.9291
915, 14.9781
910, 15.0157
905, 15.0499
900, 15.087
895, 15.1348
890, 15.1754
885, 15.236
880, 15.2549
875, 15.3362
870, 15.3554
865, 15.3817
860, 15.4326
855, 15.4326
850, 15.4326
845, 15.4326
840, 15.4326
835, 15.4326
830, 15.4326
825, 15.4326
820, 15.4326
815, 15.4326
810, 15.4326
805, 15.4326
800, 15.4326
795, 15.4326
790, 15.4326
785, 15.4326
780, 15.6357
775, 16.1201
770, 16.2269
765, 16.3828
760, 16.4142
755, 16.4769
750, 16.3493
745, 16.4564
740, 16.6694
735, 16.6828
730, 16.6028
725, 16.7123
720, 16.7239
715, 16.7889
710, 16.9017
705, 16.9252
700, 16.9379
695, 16.9564
690, 17.0191
685, 17.0834
680, 17.3461
675, 17.4321
670, 17.4869
665, 17.5978
660, 17.6616
655, 17.7426
650, 17.812
645, 17.9358
640, 17.9212
635, 18.026
630, 18.1466
625, 18.2602
620, 18.3627
615, 18.434
610, 18.5443
605, 18.6024
600, 18.7098
595, 18.8069
590, 18.8669
585, 18.9062
580, 18.9011
575, 18.8982
570, 18.8693
565, 18.8398
560, 18.7754
555, 18.6782
550, 18.5452
545, 18.3916
540, 18.2129
535, 18.0141
530, 17.7933
525, 17.5452
520, 17.2756
515, 16.9759
510, 16.6497
505, 16.3249
500, 16.0424
495, 15.8218
490, 15.6247
485, 15.477
480, 15.3932
475, 15.1385
470, 15.0893
465, 15.1265
460, 15.2354
455, 15.273
450, 15.3221
445, 15.4479
440, 15.4977
435, 15.647
430, 15.7448
425, 15.9335
420, 16.1348
415, 16.3537
410, 16.7068
405, 16.7048
400, 16.7258
395, 16.6886
390, 16.66
385, 17.0498
380, 16.3032
375, 16.3032
370, 16.3032
365, 16.3032
360, 16.3032
355, 16.3032
350, 16.3032
345, 16.3032
340, 16.3032
335, 16.3032
330, 16.3032
325, 16.3032
320, 16.3032
315, 16.3032
310, 16.3032
305, 16.3032
300, 16.3032

File: 60-7SbBr-3BiI.Sample.Raw.csv
nm, %R
1100, 10.0732
1095, 10.0911
1090, 10.1263
1085, 10.1541
1080, 10.1826
1075, 10.1984
1070, 10.2135
1065, 10.2364
1060, 10.2699
1055, 10.2779
1050, 10.2985
1045, 10.3273
1040, 10.3481
1035, 10.382
1030, 10.3988
1025, 10.424
1020, 10.4443
1015, 10.4673
1010, 10.4942
1005, 10.5187
1000, 10.5551
995, 10.5644
990, 10.5908
985, 10.6206
980, 10.6403
975, 10.6733
970, 10.6994
965, 10.725
960, 10.7528
955, 10.7924
950, 10.8174
945, 10.8376
940, 10.8749
935, 10.8955
930, 10.9204
925, 10.9624
920, 10.9843
915, 11.018
910, 11.0484
905, 11.0822
900, 11.1238
895, 11.1555
890, 11.167
885, 11.2052
880, 11.2327
875, 11.2509
870, 11.3148
865, 11.3127
860, 11.3537
855, 11.3537
850, 11.3537
845, 11.3537
840, 11.3537
835, 11.3537
830, 11.3537
825, 11.3537
820, 11.3537
815, 11.3537
810, 11.3537
805, 11.3537
800, 11.3537
795, 11.3537
790, 11.3537
785, 11.3537
780, 11.8613
775, 13.815
770, 13.702
765, 13.7615
760, 13.7397
755, 13.521
750, 13.358
745, 13.2856
740, 13.2843
735, 13.1438
730, 13.0777
725, 13.0589
720, 13.0046
715, 12.8844
710, 12.8584
705, 12.7809
700, 12.6764
695, 12.5486
690, 12.3767
685, 12.3237
680, 12.677
675, 12.0951
670, 12.0028
665, 12.1961
660, 12.2519
655, 12.406
650, 12.5068
645, 12.6908
640, 12.8144
635, 12.9509
630, 13.1014
625, 13.2892
620, 13.3911
615, 13.5378
610, 13.6731
605, 13.851
600, 13.9926
595, 14.1991
590, 14.2666
585, 14.4781
580, 14.6746
575, 14.888
570, 15.2408
565, 15.7215
560, 16.1568
555, 15.5437
550, 15.2387
545, 15.319
540, 15.383
535, 15.4485
530, 15.5392
525, 15.682
520, 15.9293
515, 16.3877
510, 16.9217
505, 16.9721
500, 15.9595
495, 13.9331
490, 11.73
485, 11.1128
480, 13.0171
475, 13.9025
470, 14.7378
465, 15.3967
460, 15.3946
455, 14.8542
450, 13.9396
445, 12.9057
440, 13.2647
435, 13.6676
430, 13.906
425, 14.2741
420, 14.6774
415, 15.1974
410, 15.2725
405, 14.9542
400, 14.6998
395, 14.3585
390, 14.1325
385, 14.2563
380, 13.0696
375, 13.0696
370, 13.0696
365, 13.0696
360, 13.0696
355, 13.0696
350, 13.0696
345, 13.0696
340, 13.0696
335, 13.0696
330, 13.0696
325, 13.0696
320, 13.0696
315, 13.0696
310, 13.0696
305, 13.0696
300, 13.0696

File: 61-8SbBr-2BiI.Sample.Raw.csv
nm, %R
1100, 10.137
1095, 10.1694
1090, 10.2045
1085, 10.2267
1080, 10.2476
1075, 10.2691
1070, 10.2805
1065, 10.3059
1060, 10.3257
1055, 10.3384
1050, 10.3698
1045, 10.391
1040, 10.4197
1035, 10.4507
1030, 10.4673
1025, 10.4812
1020, 10.4993
1015, 10.522
1010, 10.5418
1005, 10.5673
1000, 10.5898
995, 10.6081
990, 10.6199
985, 10.6621
980, 10.6801
975, 10.704
970, 10.7254
965, 10.7591
960, 10.7825
955, 10.8053
950, 10.8328
945, 10.863
940, 10.896
935, 10.9218
930, 10.9442
925, 10.9536
920, 10.981
915, 11.0185
910, 11.0522
905, 11.0876
900, 11.1173
895, 11.1335
890, 11.1585
885, 11.1926
880, 11.2258
875, 11.2495
870, 11.2931
865, 11.2852
860, 11.3414
855, 11.3414
850, 11.3414
845, 11.3414
840, 11.3414
835, 11.3414
830, 11.3414
825, 11.3414
820, 11.3414
815, 11.3414
810, 11.3414
805, 11.3414
800, 11.3414
795, 11.3414
790, 11.3414
785, 11.3414
780, 11.8491
775, 13.8031
770, 13.6901
765, 13.7496
760, 13.7277
755, 13.509
750, 13.346
745, 13.2736
740, 13.2723
735, 13.1318
730, 13.0657
725, 13.0469
720, 12.9925
715, 12.8724
710, 12.8463
705, 12.7688
700, 12.6643
695, 12.5365
690, 12.3646
685, 12.1658
680, 12.3477
675, 12.6957
670, 12.5573
665, 11.7921
660, 11.9159
655, 12.1068
650, 12.1501
645, 12.3633
640, 12.4678
635, 12.5737
630, 12.7463
625, 12.9175
620, 13.083
615, 13.1945
610, 13.3311
605, 13.4385
600, 13.5744
595, 13.7594
590, 13.8849
585, 14.0123
580, 14.2079
575, 14.4146
570, 14.7854
565, 15.3614
560, 15.9479
555, 15.051
550, 14.6776
545, 14.8328
540, 14.953
535, 15.0902
530, 15.2791
525, 15.5467
520, 15.9893
515, 16.7015
510, 17.5231
505, 17.6541
500, 16.4828
495, 13.9982
490, 11.135
485, 10.3908
480, 12.9186
475, 14.1251
470, 15.2259
465, 16.0642
460, 16.0722
455, 15.2562
450, 14.1534
445, 12.7159
440, 13.2654
435, 13.8592
430, 14.3207
425, 14.3339
420, 14.368
415, 14.4288
410, 14.4909
405, 14.1697
400, 13.913
395, 13.5685
390, 13.3404
385, 13.4653
380, 12.2677
375, 12.2677
370, 12.2677
365, 12.2677
360, 12.2677
355, 12.2677
350, 12.2677
345, 12.2677
340, 12.2677
335, 12.2677
330, 12.2677
325, 12.2677
320, 12.2677
315, 12.2677
310, 12.2677
305, 12.2677
300, 12.2677

File: 62-9SbBr-1BiI.Sample.Raw.csv
nm, %R
1100, 8.928060
1095, 8.945547
1090, 8.975154
1085, 8.998894
1080, 9.015222
1075, 9.038087
1070, 9.053282
1065, 9.073223
1060, 9.096646
1055, 9.108781
1050, 9.126237
1045, 9.153490
1040, 9.171007
1035, 9.198578
1030, 9.215120
1025, 9.231226
1020, 9.252239
1015, 9.274160
1010, 9.293061
1005, 9.319920
1000, 9.342926
995, 9.361805
990, 9.390381
985, 9.411329
980, 9.435288
975, 9.467554
970, 9.490896
965, 9.523346
960, 9.548221
955, 9.580247
950, 9.602840
945, 9.633529
940, 9.659612
935, 9.687853
930, 9.715823
925, 9.733259
920, 9.757819
915, 9.785197
910, 9.825014
905, 9.864106
900, 9.892163
895, 9.931771
890, 9.953647
885, 9.989540
880, 10.0165
875, 10.0662
870, 10.1006
865, 10.1122
860, 10.1815
855, 10.1815
850, 10.1815
845, 10.1815
840, 10.1815
835, 10.1815
830, 10.1815
825, 10.1815
820, 10.1815
815, 10.1815
810, 10.1815
805, 10.1815
800, 10.1815
795, 10.1815
790, 10.1815
785, 10.1815
780, 10.6958
775, 12.6753
770, 12.5609
765, 12.6212
760, 12.599
755, 12.3774
750, 12.2123
745, 12.139
740, 12.1376
735, 11.9952
730, 11.9283
725, 11.9093
720, 11.8542
715, 11.7324
710, 11.7061
705, 11.6275
700, 11.5217
695, 11.3922
690, 11.218
685, 11.2289
680, 11.8826
675, 11.1816
670, 11.0798
665, 11.2217
660, 11.3655
655, 11.509
650, 11.6634
645, 11.8173
640, 11.9816
635, 12.135
630, 12.3178
625, 12.4941
620, 12.6734
615, 12.814
610, 12.9902
605, 13.1455
600, 13.3218
595, 13.4697
590, 13.6219
585, 13.8095
580, 14.0332
575, 14.2906
570, 14.6599
565, 15.258
560, 15.8465
555, 15.183
550, 15.0012
545, 15.2788
540, 15.6108
535, 15.9821
530, 16.4539
525, 17.0136
520, 17.7555
515, 18.7302
510, 19.8048
505, 20.2956
500, 19.7096
495, 17.9682
490, 15.9769
485, 15.5523
480, 17.7451
475, 18.7784
470, 19.6775
465, 20.2348
460, 20.108
455, 19.2307
450, 18.0591
445, 16.9093
440, 17.5048
435, 18.0875
430, 18.6643
425, 19.4589
420, 20.3128
415, 20.4808
410, 20.6452
405, 20.3471
400, 20.1089
395, 19.7892
390, 19.5775
385, 19.6934
380, 18.582
375, 18.582
370, 18.582
365, 18.582
360, 18.582
355, 18.582
350, 18.582
345, 18.582
340, 18.582
335, 18.582
330, 18.582
325, 18.582
320, 18.582
315, 18.582
310, 18.582
305, 18.582
300, 18.582

File: 63-7 MA2Cu(Br2Cl2) with CB.csv
nm, %R
1100, 13.0995
1090, 12.7559
1080, 12.8114
1070, 12.9816
1060, 13.3268
1050, 13.3884
1040, 13.4335
1030, 13.4889
1020, 13.5213
1010, 13.5529
1000, 13.6689
990, 13.7049
980, 13.7645
970, 13.8965
960, 13.9092
950, 13.9764
940, 14.1597
930, 14.2635
920, 14.3384
910, 14.5152
900, 14.6801
890, 14.7333
880, 14.9387
870, 15.0825
860, 15.189
850, 13.1598
840, -6.056090
830, -9.684336
820, 18.4995
810, 16.7352
800, 15.1707
790, 14.6229
780, 15.1039
770, 15.166
760, 14.8964
750, 14.6209
740, 14.3953
730, 14.2495
720, 14.0016
710, 13.9996
700, 13.6702
690, 13.5087
680, 13.2854
670, 13.1488
660, 13.0162
650, 12.8769
640, 12.8078
630, 12.6647
620, 12.4929
610, 12.322
600, 12.123
590, 11.9523
580, 11.8544
570, 11.6333
560, 11.3929
550, 11.3813
540, 11.3028
530, 11.1805
520, 10.9256
510, 10.6312
500, 10.4424
490, 10.5207
480, 10.5668
470, 9.759386
460, 9.134523
450, 8.874371
440, 8.886619
430, 8.680527
420, 8.437629
410, 8.270327
400, 7.976921
390, 7.966938
380, 8.034797
370, 8.235679
360, 9.091274
350, 11.0592
340, 11.973
330, 11.973
320, 11.973
310, 11.973
300, 11.973

File: 64-9 MA2CuCl4 with CB.csv
nm, %R
1100, 10.7443
1090, 10.3602
1080, 10.3884
1070, 10.5411
1060, 10.8508
1050, 10.9025
1040, 10.867
1030, 10.9479
1020, 10.9771
1010, 11.0026
1000, 11.046
990, 11.1201
980, 11.1246
970, 11.2007
960, 11.2328
950, 11.2812
940, 11.4777
930, 11.5304
920, 11.6307
910, 11.7368
900, 11.8873
890, 11.9501
880, 12.0882
870, 12.2598
860, 12.4025
850, 12.6808
840, 13.0756
830, 13.4405
820, 13.6286
810, 12.8102
800, 12.7721
790, 12.1704
780, 12.1314
770, 12.4178
760, 12.1136
750, 12.0525
740, 11.9809
730, 11.8778
720, 11.7234
710, 11.8349
700, 11.7365
690, 11.7052
680, 11.6676
670, 11.5768
660, 11.4939
650, 11.4882
640, 11.4646
630, 11.4659
620, 11.3356
610, 11.2937
600, 11.25
590, 11.1677
580, 11.1273
570, 11.0905
560, 11.0417
550, 11.0704
540, 11.0371
530, 11.0064
520, 10.9461
510, 10.9569
500, 10.9675
490, 11.0005
480, 11.0094
470, 10.8362
460, 10.6396
450, 10.4275
440, 10.2995
430, 10.2563
420, 10.0449
410, 9.657338
400, 8.839019
390, 7.756907
380, 6.378430
370, 5.254891
360, 5.170607
350, 9.372456
340, 9.372456
330, 9.372456
320, 9.372456
310, 9.372456
300, 9.372456

File: 65-CsAgBiBr_Sample10_edited.csv
Wavelength [nm],Reflectance %
300,13.033
310,11.889
320,12.22
330,12.702
340,11.82
350,11.454
360,10.384
370,10.569
380,10.245
390,9.9226
400,9.4883
410,8.8931
420,8.3374
430,8.774
440,10.654
450,11.013
460,10.746
470,10.45
480,10.181
490,10.425
500,10.996
510,11.721
520,12.885
530,14.29
540,15.409
550,16.082
560,16.356
570,16.372
580,16.369
590,16.374
600,16.31
610,16.282
620,16.248
630,16.164
640,16.132
650,16.113
660,16.063
670,16.07
680,16.107
690,15.986
700,15.992
710,15.985
720,15.938
730,15.997
740,15.92
750,15.938
760,15.928
770,15.959
780,15.858
790,16.333
800,16.449
810,16.149
820,15.131
830,12.57
840,15.82
850,15.618
860,15.46
870,15.219
880,14.971
890,14.731
900,14.519
910,14.311
920,14.125
930,13.972
940,13.819
950,13.672
960,13.536
970,13.433
980,13.326
990,13.236
1000,13.148
1010,13.072
1020,12.995
1030,12.921
1040,12.852
1050,12.796
1060,12.745
1070,12.711
1080,12.662
1090,12.619

File: 66-CsAgSbBr_Sample11_edited.csv
Wavelength [nm],Reflectance %
300,9.8437
310,8.9138
320,9.0009
330,9.5002
340,8.959
350,8.5317
360,7.72
370,8.1619
380,8.2886
390,8.27
400,8.1434
410,7.9492
420,7.7551
430,7.6924
440,7.6985
450,7.9494
460,8.1458
470,8.3887
480,8.7354
490,9.4386
500,10.26
510,11.106
520,12.095
530,13.284
540,14.527
550,15.696
560,16.735
570,17.424
580,17.894
590,18.192
600,18.285
610,18.312
620,18.311
630,18.254
640,18.219
650,18.171
660,18.123
670,18.101
680,18.111
690,18.024
700,18.04
710,17.988
720,17.994
730,17.969
740,17.985
750,18.005
760,18.008
770,18.095
780,18.039
790,18.252
800,18.307
810,18.173
820,17.563
830,15.693
840,18.267
850,17.558
860,17.296
870,17.026
880,16.734
890,16.47
900,16.242
910,15.999
920,15.792
930,15.617
940,15.429
950,15.256
960,15.119
970,14.989
980,14.872
990,14.759
1000,14.655
1010,14.555
1020,14.48
1030,14.398
1040,14.313
1050,14.25
1060,14.199
1070,14.152
1080,14.105
1090,14.055

File: 67-RbAgBiI 150C.Sample.Raw.csv
nm, %R
1200, 13.1801
1190, 12.8984
1180, 13.0558
1170, 13.0923
1160, 13.0904
1150, 12.7797
1140, 12.963
1130, 13.1469
1120, 13.1443
1110, 13.1668
1100, 13.1814
1090, 13.2385
1080, 13.2384
1070, 13.2914
1060, 13.3125
1050, 13.3113
1040, 13.3497
1030, 13.3317
1020, 13.3449
1010, 13.3859
1000, 13.4027
990, 13.3911
980, 13.4362
970, 13.4647
960, 13.4637
950, 13.5236
940, 13.4675
930, 13.4672
920, 13.5532
910, 13.49
900, 13.5095
890, 13.5706
880, 13.6074
870, 13.5834
860, 13.494
850, 13.4781
840, 12.9823
830, 12.9146
820, 12.9926
810, 12.8297
800, 13.032
790, 13.0422
780, 13.2467
770, 13.2071
760, 12.9725
750, 13.0529
740, 13.2542
730, 13.1265
720, 13.259
710, 13.222
700, 13.2881
690, 13.4551
680, 13.3852
670, 13.4587
660, 13.5179
650, 13.6028
640, 13.6928
630, 13.7304
620, 13.8224
610, 13.8769
600, 13.9462
590, 13.9755
580, 13.877
570, 13.8107
560, 13.8599
550, 13.8129
540, 13.5233
530, 13.2068
520, 12.979
510, 12.9126
500, 12.7403
490, 11.9306
480, 10.9691
470, 10.5229
460, 10.9552
450, 11.4678
440, 11.8028
430, 12.04
420, 12.3029
410, 12.883
400, 13.5087

File: 68-CsNaBiI batch 1.2.Sample.Raw.csv
nm, %R
1200, 16.6333
1190, 16.4628
1180, 16.6914
1170, 16.7915
1160, 16.9004
1150, 16.7445
1140, 17.0021
1130, 17.2768
1120, 17.3786
1110, 17.4448
1100, 17.5253
1090, 17.6262
1080, 17.7315
1070, 17.9171
1060, 17.9811
1050, 18.1066
1040, 18.2279
1030, 18.2985
1020, 18.3826
1010, 18.5367
1000, 18.5964
990, 18.6548
980, 18.7753
970, 18.8816
960, 18.9322
950, 19.0877
940, 19.1576
930, 19.2201
920, 19.3341
910, 19.3688
900, 19.4246
890, 19.5348
880, 19.557
870, 19.5889
860, 19.5642
850, 19.0557
840, 18.2895
830, 17.4676
820, 16.7916
810, 16.4634
800, 18.6934
790, 18.8018
780, 17.1027
770, 17.4334
760, 17.1419
750, 17.5494
740, 18.0194
730, 17.5699
720, 17.9266
710, 17.8613
700, 17.7144
690, 18.0516
680, 18.2907
670, 17.7647
660, 16.852
650, 16.5722
640, 16.2177
630, 15.7078
620, 15.245
610, 14.5747
600, 13.7909
590, 12.9691
580, 11.8569
570, 10.74
560, 9.877400
550, 8.780276
540, 8.260708
530, 8.680062
520, 9.688025
510, 11.1549
500, 11.3229
490, 8.036842
480, 6.211723
470, 8.161385
460, 10.5223
450, 11.4725
440, 11.2242
430, 11.9755
420, 12.2075
410, 12.6932
400, 13.5853

File: 69-CsNaSbI Batch 3.1.Sample.Raw.csv
nm, %R
1200, 5.161148
1190, 4.840844
1180, 5.012957
1170, 5.012974
1160, 5.000200
1150, 4.680047
1140, 4.858824
1130, 5.026843
1120, 5.044603
1110, 5.035790
1100, 5.040800
1090, 5.056401
1080, 5.052679
1070, 5.096708
1060, 5.071245
1050, 5.102063
1040, 5.111422
1030, 5.129230
1020, 5.128527
1010, 5.176945
1000, 5.131807
990, 5.131812
980, 5.140561
970, 5.185121
960, 5.167124
950, 5.143590
940, 5.111666
930, 5.111606
920, 5.156564
910, 5.105626
900, 5.070512
890, 5.145638
880, 5.114482
870, 5.071831
860, 4.965593
850, 4.993496
840, 3.454884
830, -4.491670
820, 0.927276
810, 3.231746
800, 4.531147
790, 4.230461
780, 3.249591
770, 3.471012
760, 3.335880
750, 3.461484
740, 3.611964
730, 3.768523
720, 3.726001
710, 3.888467
700, 3.882419
690, 4.102255
680, 4.389877
670, 4.355312
660, 4.120114
650, 4.136784
640, 4.187660
630, 4.233122
620, 4.233762
610, 4.237079
600, 4.239284
590, 4.314584
580, 4.370770
570, 4.474817
560, 4.629557
550, 4.509191
540, 4.400231
530, 4.463559
520, 4.518843
510, 4.676098
500, 4.559918
490, 3.616225
480, 3.390447
470, 4.101219
460, 4.530071
450, 4.334257
440, 3.919039
430, 4.134085
420, 4.429650
410, 4.790768
400, 5.173430

File: 70-RbNaSbI Batch 4.2.Sample.Raw.csv
nm, %R
1200, 5.856192
1190, 5.513728
1180, 5.534366
1170, 5.510499
1160, 5.493920
1150, 5.497983
1140, 5.677116
1130, 5.907158
1120, 5.701626
1110, 5.496841
1100, 5.455219
1090, 5.474781
1080, 5.698627
1070, 5.743782
1060, 5.711120
1050, 5.694219
1040, 5.751798
1030, 5.722354
1020, 5.680672
1010, 5.731882
1000, 5.704657
990, 5.662600
980, 5.646924
970, 5.698773
960, 5.671462
950, 5.690417
940, 5.667177
930, 5.683201
920, 5.701708
910, 5.663728
900, 5.659496
890, 5.720670
880, 5.708585
870, 5.734858
860, 5.646951
850, 3.918988
840, 1.373924
830, -0.977949
820, -2.126341
810, 3.967854
800, 4.485425
790, 5.469513
780, 2.747981
770, 3.830360
760, 3.391672
750, 3.257034
740, 4.363517
730, 4.156225
720, 4.104113
710, 4.715742
700, 4.579700
690, 4.835023
680, 5.605029
670, 5.404777
660, 4.710873
650, 4.919861
640, 5.085708
630, 4.906636
620, 5.024839
610, 5.197601
600, 5.074975
590, 5.192824
580, 5.261091
570, 5.269728
560, 5.619274
550, 5.406879
540, 5.288726
530, 5.363829
520, 5.612398
510, 6.187073
500, 6.149905
490, 4.656787
480, 4.195041
470, 5.334234
460, 6.029434
450, 5.559533
440, 4.675905
430, 5.154791
420, 5.370009
410, 5.681546
400, 6.603598

File: 71-RbNaSbBr (s) Batch 4.1.Sample.Raw.csv
nm, %R
1200, 6.033305
1190, 5.727204
1180, 5.933780
1170, 5.940583
1160, 5.918622
1150, 5.589185
1140, 5.830184
1130, 6.041227
1120, 6.028965
1110, 6.036506
1100, 5.810520
1090, 5.855209
1080, 6.082852
1070, 6.140752
1060, 6.117831
1050, 6.146035
1040, 6.157262
1030, 6.159460
1020, 6.182533
1010, 6.216203
1000, 6.181495
990, 6.180191
980, 6.202217
970, 6.259092
960, 6.222205
950, 6.243693
940, 6.249416
930, 6.282092
920, 6.301719
910, 6.251963
900, 6.268956
890, 6.308770
880, 6.275770
870, 6.240350
860, 6.171998
850, 6.092682
840, 4.354139
830, -2.196223
820, 2.448500
810, 4.819680
800, 5.867476
790, 5.720198
780, 4.678736
770, 4.971973
760, 4.887979
750, 4.939418
740, 5.253869
730, 5.294363
720, 5.258722
710, 5.420093
700, 5.478438
690, 5.747174
680, 5.903955
670, 5.899239
660, 5.750057
650, 5.717221
640, 5.772804
630, 5.832198
620, 5.840594
610, 5.925136
600, 5.952831
590, 5.991455
580, 5.943586
570, 5.895514
560, 5.932784
550, 5.697669
540, 5.558030
530, 5.613917
520, 5.777377
510, 6.125817
500, 6.196287
490, 5.508886
480, 5.323220
470, 5.973893
460, 6.353078
450, 6.144935
440, 5.755033
430, 5.988491
420, 6.229877
410, 6.615979
400, 7.053855