Folder: campaign1/UV-Vis data/Reflection (part 3)

File: 25-Ca 10%.Sample.Raw.csv
nm, %R
1200, 14.2415
1195, 14.3626
1190, 14.4909
1185, 20.1833
1180, 20.3663
1175, 20.5276
1170, 20.8284
1165, 20.989
1160, 21.163
1155, 21.3003
1150, 21.4482
1145, 21.5779
1140, 21.7233
1135, 21.8648
1130, 21.9938
1125, 22.1107
1120, 22.2352
1115, 22.3295
1110, 22.4384
1105, 22.5556
1100, 22.6558
1095, 22.7431
1090, 22.8146
1085, 22.8841
1080, 22.9472
1075, 23.0096
1070, 23.0735
1065, 23.1302
1060, 23.1797
1055, 23.2242
1050, 23.2592
1045, 23.3012
1040, 23.3427
1035, 23.3955
1030, 23.4167
1025, 23.4498
1020, 23.4759
1015, 23.4998
1010, 23.5221
1005, 23.532
1000, 23.567
995, 23.5871
990, 23.5956
985, 23.6217
980, 23.6415
975, 23.6511
970, 23.6547
965, 23.6529
960, 23.6337
955, 23.6144
950, 23.5899
945, 23.5479
940, 23.5101
935, 23.4615
930, 23.3991
925, 23.3487
920, 23.2788
915, 23.1845
910, 23.103
905, 23.0075
900, 22.9247
895, 22.8552
890, 22.8044
885, 22.7537
880, 22.718
875, 22.6769
870, 22.618
865, 22.5943
860, 22.5395
855, 22.0343
850, 21.2781
845, 20.3878
840, 19.4804
835, 18.6729
830, 18.0821
825, 17.8252
820, 21.8253
815, 21.8096
810, 21.3965
805, 21.1625
800, 20.815
795, 20.6542
790, 20.2782
785, 20.0338
780, 19.7483
775, 19.5117
770, 19.305
765, 18.9284
760, 18.7703
755, 18.6054
750, 18.5049
745, 18.2327
740, 18.1893
735, 18.0042
730, 17.8644
725, 17.8474
720, 17.821
715, 17.8081
710, 17.7757
705, 17.6903
700, 17.6898
695, 17.6336
690, 17.5892
685, 17.6257
680, 17.6393
675, 17.7195
670, 17.7504
665, 17.726
660, 17.7946
655, 17.7844
650, 17.831
645, 17.8668
640, 17.8949
635, 17.9021
630, 17.9392
625, 17.9938
620, 18.0293
615, 18.0387
610, 18.103
605, 18.1502
600, 18.1833
595, 18.2096
590, 18.2755
585, 18.3393
580, 18.3729
575, 18.4125
570, 18.4521
565, 18.4844
560, 18.494
555, 18.5593
550, 18.5552
545, 18.4693
540, 18.3799
535, 18.3337
530, 18.2638
525, 18.1951
520, 18.1135
515, 18.0353
510, 17.9676
505, 17.9046
500, 17.8699
495, 17.8373
490, 17.8392
485, 17.8142
480, 17.7575
475, 17.6304
470, 17.466
465, 17.2543
460, 17.0514
455, 16.8416
450, 16.6592
445, 16.4952
440, 16.3428
435, 16.1475
430, 15.9295
425, 15.6671
420, 15.4073
415, 15.1545
410, 14.9033
405, 14.6826
400, 14.4431
395, 14.1777
390, 13.9093
385, 13.6764
380, 13.4588
375, 13.2531
370, 13.194
365, 13.1661
360, 12.7049
355, 11.9778
350, 12.798
345, 13.5163
340, 13.4517
335, 13.4047
330, 13.4047
325, 13.4047
320, 13.4047
315, 13.4047
310, 13.4047
305, 13.4047
300, 13.4047

File: 26-Sample242.Sample.Raw.csv
nm, %R
1100, 19.1607
1095, 19.2152
1090, 19.2429
1085, 19.2989
1080, 19.3345
1075, 19.4227
1070, 19.4322
1065, 19.4839
1060, 19.5219
1055, 19.5556
1050, 19.6033
1045, 19.6617
1040, 19.7145
1035, 19.7424
1030, 19.7695
1025, 19.7902
1020, 19.8084
1015, 19.7535
1010, 19.7628
1005, 19.7131
1000, 19.6273
995, 19.5383
990, 19.4176
985, 19.2761
980, 19.1603
975, 18.9985
970, 18.8234
965, 18.6779
960, 18.528
955, 18.397
950, 18.2859
945, 18.1657
940, 18.0771
935, 18.0193
930, 17.9496
925, 17.8916
920, 17.8802
915, 17.8851
910, 17.887
905, 17.9376
900, 17.9515
895, 18.0074
890, 18.0553
885, 18.1082
880, 18.1503
875, 18.1956
870, 18.2352
865, 18.3119
860, 18.3232
855, 18.0986
850, 16.2856
845, 12.7639
840, 15.6421
835, 20.9797
830, 21.2514
825, 20.3801
820, 19.4249
815, 18.748
810, 18.5568
805, 18.0411
800, 17.7392
795, 18.3126
790, 18.3594
785, 18.2598
780, 18.0879
775, 17.9403
770, 17.9923
765, 17.7687
760, 17.75
755, 17.5035
750, 17.4747
745, 17.5096
740, 17.3729
735, 17.3038
730, 17.2486
725, 17.2267
720, 17.2243
715, 17.1147
710, 17.0866
705, 17.0536
700, 17.041
695, 17.0044
690, 16.9416
685, 16.9105
680, 16.9406
675, 17.0427
670, 17.0251
665, 17.0067
660, 17.047
655, 17.0459
650, 17.0331
645, 17.0465
640, 17.0648
635, 17.0758
630, 17.0805
625, 17.1045
620, 17.1364
615, 17.1463
610, 17.1155
605, 17.1145
600, 17.0925
595, 17.089
590, 17.0751
585, 17.0542
580, 17.0106
575, 16.9586
570, 16.8709
565, 16.7488
560, 16.6396
555, 16.6464
550, 16.5909
545, 16.5032
540, 16.3836
535, 16.2587
530, 16.1376
525, 15.9848
520, 15.81
515, 15.6462
510, 15.4578
505, 15.2685
500, 15.2353
495, 15.3224
490, 15.4463
485, 15.4044
480, 15.0317
475, 14.8118
470, 14.5654
465, 14.3255
460, 14.1586
455, 14.0434
450, 13.9952
445, 13.9861
440, 13.7368
435, 13.5311
430, 13.3085
425, 13.1099
420, 12.8921
415, 12.666
410, 12.4431
405, 12.2152
400, 11.9916
395, 11.7362
390, 11.5002
385, 11.2689
380, 11.0041
375, 10.8635
370, 11.3528
365, 11.2466
360, 10.1016
355, 8.983419
350, 8.252448
345, 7.916618
340, 8.042162
335, 8.283915
330, 8.367531
325, 8.779296
320, 9.908742
315, 10.1236
310, 6.501077
305, 8.515817
300, 9.000208

File: 27-Sample243.Sample.Raw.csv
nm, %R
1100, 24.8665
1095, 24.7133
1090, 24.5064
1085, 24.2858
1080, 24.03
1075, 23.8106
1070, 23.4921
1065, 23.1965
1060, 22.8664
1055, 22.5334
1050, 22.1859
1045, 21.8728
1040, 21.5303
1035, 21.1999
1030, 20.8782
1025, 20.5801
1020, 20.3204
1015, 20.0221
1010, 19.826
1005, 19.6396
1000, 19.4809
995, 19.3977
990, 19.3152
985, 19.3027
980, 19.3501
975, 19.4048
970, 19.4908
965, 19.6372
960, 19.809
955, 20.0004
950, 20.2219
945, 20.4146
940, 20.6343
935, 20.8342
930, 20.9917
925, 21.1386
920, 21.2663
915, 21.3571
910, 21.435
905, 21.5001
900, 21.524
895, 21.5675
890, 21.5496
885, 21.5313
880, 21.4889
875, 21.4179
870, 21.3491
865, 21.2323
860, 21.1146
855, 20.8887
850, 20.5725
845, 20.1968
840, 19.7925
835, 19.3902
830, 19.0209
825, 18.7152
820, 18.5039
815, 18.6545
810, 18.8046
805, 19.0607
800, 18.8116
795, 18.1242
790, 18.1085
785, 18.2038
780, 18.1087
775, 18.198
770, 18.1857
765, 18.1499
760, 18.1682
755, 18.1599
750, 18.3946
745, 18.4217
740, 18.4281
735, 18.375
730, 18.3831
725, 18.4536
720, 18.346
715, 18.3323
710, 18.3545
705, 18.3317
700, 18.2652
695, 18.1988
690, 18.2083
685, 18.2694
680, 18.2105
675, 18.1448
670, 18.1252
665, 18.1191
660, 18.1715
655, 18.1347
650, 18.1299
645, 18.1301
640, 18.1535
635, 18.1567
630, 18.1863
625, 18.1284
620, 18.1158
615, 18.1108
610, 18.076
605, 18.0602
600, 18.0395
595, 17.9959
590, 17.9503
585, 17.9058
580, 17.8464
575, 17.7871
570, 17.7266
565, 17.6903
560, 17.6274
555, 17.4501
550, 17.31
545, 17.2165
540, 17.0893
535, 16.9641
530, 16.8428
525, 16.7076
520, 16.5917
515, 16.4898
510, 16.399
505, 16.2655
500, 16.0497
495, 15.6865
490, 15.302
485, 15.0692
480, 15.0679
475, 14.9616
470, 14.8532
465, 14.707
460, 14.4949
455, 14.1901
450, 13.8982
445, 13.5399
440, 13.3291
435, 13.1406
430, 12.8871
425, 12.612
420, 12.3682
415, 12.1782
410, 11.9805
405, 11.7937
400, 11.6027
395, 11.4161
390, 11.3454
385, 11.2156
380, 11.2131
375, 11.0092
370, 10.4412
365, 10.1843
360, 8.753314
355, 7.628493
350, 6.784543
345, 6.385357
340, 6.369969
335, 6.369969
330, 6.369969
325, 6.369969
320, 6.369969
315, 6.426644
310, 6.369969
305, 6.369969
300, 6.369969

File: 28-Sample244.Sample.Raw.csv
nm, %R
1100, 18.5442
1095, 18.64
1090, 18.7199
1085, 18.811
1080, 18.905
1075, 19.0445
1070, 19.1246
1065, 19.2362
1060, 19.3449
1055, 19.45
1050, 19.5539
1045, 19.6938
1040, 19.8142
1035, 19.929
1030, 20.0397
1025, 20.143
1020, 20.2639
1015, 20.3209
1010, 20.4403
1005, 20.5242
1000, 20.5972
995, 20.6663
990, 20.7319
985, 20.7911
980, 20.8454
975, 20.8907
970, 20.8943
965, 20.9014
960, 20.8838
955, 20.8369
950, 20.7731
945, 20.6439
940, 20.4851
935, 20.2655
930, 20.0075
925, 19.6635
920, 19.2947
915, 18.8743
910, 18.413
905, 17.9033
900, 17.4022
895, 16.8645
890, 16.3565
885, 15.8606
880, 15.4667
875, 15.0845
870, 14.7912
865, 14.5032
860, 14.3216
855, 14.016
850, 12.3721
845, 8.209449
840, 10.8586
835, 16.4667
830, 16.7581
825, 15.8177
820, 14.813
815, 14.2102
810, 13.8099
805, 13.2877
800, 13.0676
795, 13.5131
790, 13.5661
785, 13.3598
780, 13.2222
775, 13.091
770, 12.881
765, 12.7497
760, 12.6333
755, 12.4314
750, 12.3576
745, 12.2567
740, 12.1641
735, 12.0605
730, 11.9061
725, 11.7965
720, 11.7196
715, 11.609
710, 11.5661
705, 11.4865
700, 11.3751
695, 11.2866
690, 11.1447
685, 11.0728
680, 11.062
675, 11.0997
670, 11.0469
665, 10.9822
660, 10.9531
655, 10.8863
650, 10.8359
645, 10.7819
640, 10.7652
635, 10.7543
630, 10.7101
625, 10.6522
620, 10.6371
615, 10.6437
610, 10.6252
605, 10.6139
600, 10.6028
595, 10.5937
590, 10.611
585, 10.6055
580, 10.6108
575, 10.6102
570, 10.6074
565, 10.5757
560, 10.5397
555, 10.637
550, 10.6878
545, 10.7037
540, 10.697
535, 10.6861
530, 10.6614
525, 10.6347
520, 10.5775
515, 10.4938
510, 10.375
505, 10.3033
500, 10.3461
495, 10.5098
490, 10.6897
485, 10.7363
480, 10.4335
475, 10.2591
470, 10.0949
465, 9.928728
460, 9.836005
455, 9.811785
450, 9.877900
445, 9.998848
440, 9.838087
435, 9.747617
430, 9.644877
425, 9.607289
420, 9.556239
415, 9.499737
410, 9.489925
405, 9.482592
400, 9.437945
395, 9.442382
390, 9.466437
385, 9.464625
380, 9.474732
375, 9.508107
370, 10.2493
365, 10.2697
360, 9.103323
355, 8.161426
350, 7.406301
345, 6.840405
340, 6.564989
335, 6.481499
330, 6.692812
325, 7.044202
320, 7.864951
315, 8.303461
310, 4.484568
305, 6.149435
300, 6.561831

File: 29-Sample245.Sample.Raw.csv
nm, %R
1100, 20.04
1095, 20.0281
1090, 19.9954
1085, 19.9742
1080, 19.9557
1075, 19.9763
1070, 19.9276
1065, 19.9197
1060, 19.9023
1055, 19.8963
1050, 19.8822
1045, 19.915
1040, 19.9209
1035, 19.9485
1030, 19.9677
1025, 20.007
1020, 20.0527
1015, 20.0498
1010, 20.1365
1005, 20.1859
1000, 20.2448
995, 20.3254
990, 20.4042
985, 20.496
980, 20.6131
975, 20.7225
970, 20.8317
965, 20.9661
960, 21.1107
955, 21.263
950, 21.4397
945, 21.5959
940, 21.7798
935, 21.9789
930, 22.1439
925, 22.3221
920, 22.5017
915, 22.6718
910, 22.8393
905, 22.9727
900, 23.055
895, 23.1076
890, 23.0682
885, 22.9433
880, 22.7184
875, 22.3551
870, 21.8664
865, 21.2706
860, 20.5122
855, 19.7782
850, 19.0641
845, 16.4543
840, 17.4071
835, 21.2878
830, 20.222
825, 18.5194
820, 16.8403
815, 15.8346
810, 15.0937
805, 14.4285
800, 14.0602
795, 14.538
790, 14.4935
785, 14.3128
780, 14.1316
775, 13.914
770, 13.8239
765, 13.6307
760, 13.6248
755, 13.3958
750, 13.3755
745, 13.336
740, 13.2104
735, 13.1298
730, 13.0389
725, 12.9639
720, 12.9131
715, 12.7947
710, 12.7871
705, 12.7108
700, 12.6335
695, 12.5451
690, 12.4294
685, 12.3335
680, 12.3206
675, 12.3947
670, 12.3255
665, 12.3001
660, 12.2577
655, 12.2148
650, 12.162
645, 12.0948
640, 12.0707
635, 12.0781
630, 12.0224
625, 12.0071
620, 12.0019
615, 11.9738
610, 11.9329
605, 11.9249
600, 11.9257
595, 11.9353
590, 11.9414
585, 11.9338
580, 11.9199
575, 11.9221
570, 11.9106
565, 11.8548
560, 11.8292
555, 11.9484
550, 12.0004
545, 12.0025
540, 11.9999
535, 11.9719
530, 11.9416
525, 11.8889
520, 11.8277
515, 11.7309
510, 11.6023
505, 11.5044
500, 11.5529
495, 11.7447
490, 11.9673
485, 11.9915
480, 11.6389
475, 11.4373
470, 11.2371
465, 11.0452
460, 10.9604
455, 10.9235
450, 10.9632
445, 11.0652
440, 10.866
435, 10.759
430, 10.6402
425, 10.5691
420, 10.4591
415, 10.3543
410, 10.286
405, 10.2063
400, 10.1622
395, 10.0876
390, 10.0558
385, 10.0381
380, 9.993482
375, 10.0697
370, 10.978
365, 10.9641
360, 9.531838
355, 8.511610
350, 7.578907
345, 7.054002
340, 6.937219
335, 6.687002
330, 6.424787
325, 6.196295
320, 6.100301
315, 5.668170
310, 4.480148
305, 4.645485
300, 4.688430

File: 30-Sample246.Sample.Raw.csv
nm, %R
1100, 15.2112
1095, 15.2102
1090, 15.2028
1085, 15.2216
1080, 15.2443
1075, 15.3115
1070, 15.3553
1065, 15.4174
1060, 15.4889
1055, 15.5727
1050, 15.6872
1045, 15.8249
1040, 15.9728
1035, 16.123
1030, 16.2828
1025, 16.4614
1020, 16.6642
1015, 16.8185
1010, 17.0403
1005, 17.2408
1000, 17.4487
995, 17.6749
990, 17.8982
985, 18.1227
980, 18.3641
975, 18.5849
970, 18.7972
965, 19.0217
960, 19.2479
955, 19.4507
950, 19.6791
945, 19.8733
940, 20.0684
935, 20.2567
930, 20.4241
925, 20.5686
920, 20.7124
915, 20.8748
910, 21.0101
905, 21.1548
900, 21.2599
895, 21.3699
890, 21.4656
885, 21.5431
880, 21.6161
875, 21.6534
870, 21.6858
865, 21.7138
860, 21.6643
855, 21.4665
850, 20.5184
845, 18.916
840, 20.5737
835, 25.1125
830, 24.8061
825, 23.6339
820, 22.2947
815, 21.2252
810, 20.3925
805, 19.4562
800, 18.7383
795, 18.4845
790, 17.8818
785, 17.154
780, 16.5336
775, 15.9674
770, 15.4849
765, 15.0595
760, 14.9063
755, 14.5788
750, 14.5469
745, 14.428
740, 14.3094
735, 14.2202
730, 14.1821
725, 14.214
720, 14.1099
715, 14.0616
710, 14.1159
705, 14.1
700, 14.085
695, 14.0181
690, 13.934
685, 13.8626
680, 13.8852
675, 13.9668
670, 13.9245
665, 13.8702
660, 13.8164
655, 13.753
650, 13.6657
645, 13.5922
640, 13.5472
635, 13.5104
630, 13.433
625, 13.3812
620, 13.3437
615, 13.3086
610, 13.2848
605, 13.2958
600, 13.2827
595, 13.3135
590, 13.3319
585, 13.3579
580, 13.3806
575, 13.3944
570, 13.4116
565, 13.3849
560, 13.3682
555, 13.5125
550, 13.5994
545, 13.6417
540, 13.6668
535, 13.6822
530, 13.6783
525, 13.6682
520, 13.6515
515, 13.5973
510, 13.5124
505, 13.4607
500, 13.5727
495, 13.8115
490, 14.0579
485, 14.13
480, 13.8182
475, 13.6787
470, 13.5
465, 13.364
460, 13.2829
455, 13.2897
450, 13.3477
445, 13.4648
440, 13.2905
435, 13.1681
430, 13.0568
425, 12.9307
420, 12.8087
415, 12.6781
410, 12.5787
405, 12.4725
400, 12.3404
395, 12.2238
390, 12.1531
385, 12.0897
380, 12.0325
375, 12.061
370, 12.8592
365, 12.9178
360, 11.6154
355, 10.658
350, 9.948395
345, 9.700218
340, 9.599035
335, 9.605477
330, 9.550785
325, 9.456686
320, 9.746689
315, 9.435439
310, 7.625977
305, 8.215583
300, 8.180722

File: 31-Sample247.Sample.Raw.csv
nm, %R
1100, 21.0661
1095, 21.1432
1090, 21.1899
1085, 21.2412
1080, 21.2831
1075, 21.3533
1070, 21.3482
1065, 21.373
1060, 21.3722
1055, 21.3577
1050, 21.3477
1045, 21.3585
1040, 21.3524
1035, 21.3319
1030, 21.2974
1025, 21.2735
1020, 21.2611
1015, 21.1872
1010, 21.1758
1005, 21.1355
1000, 21.0875
995, 21.059
990, 21.0116
985, 20.9754
980, 20.9679
975, 20.9556
970, 20.9181
965, 20.9293
960, 20.9243
955, 20.9452
950, 20.9933
945, 21.0259
940, 21.0817
935, 21.1652
930, 21.2373
925, 21.3461
920, 21.4832
915, 21.625
910, 21.8051
905, 21.9845
900, 22.1874
895, 22.4402
890, 22.6619
885, 22.9146
880, 23.1805
875, 23.4509
870, 23.7035
865, 23.9669
860, 24.2267
855, 24.2077
850, 23.1649
845, 21.8617
840, 23.7892
835, 28.4647
830, 28.3549
825, 27.3292
820, 26.4234
815, 25.8443
810, 25.4916
805, 25.0229
800, 24.7223
795, 24.9791
790, 24.8157
785, 24.4291
780, 23.8496
775, 23.3222
770, 22.8204
765, 22.0815
760, 21.5528
755, 20.7287
750, 20.1396
745, 19.5217
740, 18.8871
735, 18.2772
730, 17.7705
725, 17.4582
720, 17.1486
715, 16.9311
710, 16.8298
705, 16.683
700, 16.5747
695, 16.4748
690, 16.3485
685, 16.2172
680, 16.1932
675, 16.2776
670, 16.2486
665, 16.2517
660, 16.2571
655, 16.2156
650, 16.2029
645, 16.1599
640, 16.2177
635, 16.2463
630, 16.2419
625, 16.256
620, 16.2791
615, 16.2832
610, 16.279
605, 16.3151
600, 16.3023
595, 16.3405
590, 16.3613
585, 16.3883
580, 16.3983
575, 16.4127
570, 16.4353
565, 16.4254
560, 16.4508
555, 16.6048
550, 16.7075
545, 16.781
540, 16.8284
535, 16.8667
530, 16.9166
525, 16.9309
520, 16.9467
515, 16.9326
510, 16.8967
505, 16.8925
500, 17.0486
495, 17.3262
490, 17.5959
485, 17.6925
480, 17.4191
475, 17.3003
470, 17.1643
465, 17.0293
460, 16.9686
455, 16.9643
450, 17.013
445, 17.1072
440, 16.9087
435, 16.7817
430, 16.6108
425, 16.4457
420, 16.2301
415, 16.0698
410, 15.8706
405, 15.6609
400, 15.4584
395, 15.2507
390, 15.0882
385, 14.8881
380, 14.7516
375, 14.6641
370, 15.3989
365, 15.2949
360, 13.9884
355, 12.9962
350, 12.2454
345, 11.9972
340, 11.9359
335, 11.9837
330, 11.8127
325, 11.9847
320, 12.3669
315, 12.1162
310, 10.1948
305, 10.6644
300, 10.6532

File: 32-Sample248.Sample.Raw.csv
nm, %R
1100, 23.8425
1095, 23.8949
1090, 23.9631
1085, 24.035
1080, 24.0956
1075, 24.1981
1070, 24.2518
1065, 24.3311
1060, 24.4088
1055, 24.4889
1050, 24.576
1045, 24.6856
1040, 24.8019
1035, 24.8808
1030, 24.9809
1025, 25.0837
1020, 25.1988
1015, 25.2541
1010, 25.3956
1005, 25.4913
1000, 25.5995
995, 25.7044
990, 25.8169
985, 25.9388
980, 26.0642
975, 26.1831
970, 26.2967
965, 26.4421
960, 26.5826
955, 26.7169
950, 26.8974
945, 27.0389
940, 27.2176
935, 27.4246
930, 27.5854
925, 27.7688
920, 27.9913
915, 28.2183
910, 28.4502
905, 28.6911
900, 28.9276
895, 29.1826
890, 29.4077
885, 29.6417
880, 29.8945
875, 30.0929
870, 30.3323
865, 30.5127
860, 30.7089
855, 29.385
850, 27.397
845, 25.6058
840, 24.872
835, 31.3637
830, 32.88
825, 32.8859
820, 32.4047
815, 32.0934
810, 31.8261
805, 31.743
800, 31.6106
795, 31.6642
790, 31.7271
785, 31.6317
780, 31.6534
775, 31.6677
770, 31.6772
765, 31.5399
760, 31.4934
755, 31.3333
750, 31.245
745, 31.2007
740, 31.1899
735, 30.986
730, 30.843
725, 30.6631
720, 30.2503
715, 29.6851
710, 28.9804
705, 28.0325
700, 26.9301
695, 25.5462
690, 24.1163
685, 22.6426
680, 21.315
675, 20.1526
670, 19.0957
665, 18.1801
660, 17.4195
655, 16.7395
650, 16.1837
645, 15.7337
640, 15.3597
635, 15.0965
630, 14.8176
625, 14.6057
620, 14.4374
615, 14.2927
610, 14.2174
605, 14.1679
600, 14.0979
595, 14.0935
590, 14.1106
585, 14.0966
580, 14.0582
575, 14.0747
570, 14.0763
565, 14.0447
560, 14.0542
555, 14.1321
550, 14.195
545, 14.2392
540, 14.2867
535, 14.3403
530, 14.3702
525, 14.405
520, 14.4741
515, 14.5164
510, 14.5653
505, 14.6272
500, 14.7479
495, 14.9129
490, 15.118
485, 15.2556
480, 15.1957
475, 15.2282
470, 15.2479
465, 15.2754
460, 15.3332
455, 15.401
450, 15.5151
445, 15.6582
440, 15.6338
435, 15.6665
430, 15.642
425, 15.6046
420, 15.5647
415, 15.5184
410, 15.4692
405, 15.3813
400, 15.2628
395, 15.1421
390, 15.0163
385, 14.886
380, 14.8164
375, 14.675
370, 14.9313
365, 14.8871
360, 14.2978
355, 13.91
350, 13.5362
345, 13.4035
340, 13.9749
335, 14.4836
330, 14.9683
325, 14.317
320, 13.3116
315, 12.2911
310, 11.5945
305, 11.5945
300, 11.5945

File: 33-Sample249.Sample.Raw.csv
nm, %R
1100, 25.5101
1095, 25.508
1090, 25.5209
1085, 25.5283
1080, 25.5385
1075, 25.605
1070, 25.6087
1065, 25.6467
1060, 25.6932
1055, 25.7362
1050, 25.811
1045, 25.9039
1040, 25.9736
1035, 26.079
1030, 26.1568
1025, 26.2669
1020, 26.3665
1015, 26.4217
1010, 26.552
1005, 26.6454
1000, 26.7407
995, 26.8433
990, 26.9316
985, 27.0283
980, 27.1236
975, 27.2228
970, 27.3184
965, 27.4419
960, 27.5783
955, 27.6947
950, 27.852
945, 27.9952
940, 28.1723
935, 28.3542
930, 28.5575
925, 28.7508
920, 28.9765
915, 29.2156
910, 29.4532
905, 29.673
900, 29.9279
895, 30.1754
890, 30.3946
885, 30.6053
880, 30.8358
875, 31.0259
870, 31.2218
865, 31.355
860, 31.5542
855, 31.5542
850, 31.5542
845, 31.5542
840, 32.5214
835, 36.0552
830, 35.5585
825, 34.3787
820, 33.2664
815, 32.6605
810, 32.3297
805, 32.0727
800, 31.9215
795, 31.2566
790, 31.1531
785, 31.2527
780, 31.0026
775, 31.1533
770, 31.2131
765, 31.2123
760, 31.325
755, 31.2847
750, 31.3837
745, 31.2903
740, 31.1707
735, 30.9374
730, 30.7217
725, 30.475
720, 29.9205
715, 29.2047
710, 28.4514
705, 27.3443
700, 26.1353
695, 24.7029
690, 23.3239
685, 22.0314
680, 20.7228
675, 19.4025
670, 18.4074
665, 17.6798
660, 17.0372
655, 16.5469
650, 16.1668
645, 15.891
640, 15.6961
635, 15.5163
630, 15.3247
625, 15.2248
620, 15.1009
615, 15.0029
610, 14.8825
605, 14.8454
600, 14.7651
595, 14.7534
590, 14.7313
585, 14.7087
580, 14.6971
575, 14.7287
570, 14.7746
565, 14.8736
560, 14.9858
555, 14.8757
550, 14.8217
545, 14.9081
540, 14.9842
535, 15.0637
530, 15.1574
525, 15.286
520, 15.4544
515, 15.6801
510, 15.9422
505, 16.1078
500, 16.0529
495, 15.7204
490, 15.3804
485, 15.347
480, 15.8901
475, 16.1949
470, 16.4595
465, 16.6905
460, 16.7348
455, 16.7049
450, 16.5803
445, 16.3689
440, 16.5059
435, 16.5772
430, 16.62
425, 16.6579
420, 16.6456
415, 16.6781
410, 16.7142
405, 16.7989
400, 16.7809
395, 16.8266
390, 16.8524
385, 16.9234
380, 17.0701
375, 17.0426
370, 17.8756
365, 17.8396
360, 16.5206
355, 15.4742
350, 14.7249
345, 14.365
340, 14.3304
335, 14.3304
330, 14.3304
325, 14.3304
320, 14.3304
315, 14.4579
310, 14.3304
305, 14.3304
300, 14.3304

File: 34-Sample250.Sample.Raw.csv
nm, %R
1100, 19.6128
1095, 19.6114
1090, 19.6124
1085, 19.6278
1080, 19.6381
1075, 19.7017
1070, 19.7106
1065, 19.7537
1060, 19.7931
1055, 19.8297
1050, 19.8838
1045, 19.9739
1040, 20.0515
1035, 20.1321
1030, 20.2146
1025, 20.313
1020, 20.4246
1015, 20.5031
1010, 20.6355
1005, 20.7664
1000, 20.8835
995, 21.0244
990, 21.1724
985, 21.3132
980, 21.4902
975, 21.6511
970, 21.8117
965, 22.0103
960, 22.2085
955, 22.3939
950, 22.6205
945, 22.8237
940, 23.0678
935, 23.2811
930, 23.5246
925, 23.7562
920, 24.0185
915, 24.2791
910, 24.5752
905, 24.8342
900, 25.1268
895, 25.4043
890, 25.6954
885, 25.9784
880, 26.2756
875, 26.5503
870, 26.809
865, 26.9757
860, 27.2145
855, 27.2145
850, 27.2145
845, 27.2145
840, 28.2217
835, 31.934
830, 31.4494
825, 30.2561
820, 29.1114
815, 28.4968
810, 28.1462
805, 27.8196
800, 27.2412
795, 26.4029
790, 26.2723
785, 25.9392
780, 25.8145
775, 25.8927
770, 25.9857
765, 25.6409
760, 25.443
755, 25.3468
750, 25.4234
745, 25.2082
740, 25.1691
735, 25.1881
730, 25.0985
725, 25.1178
720, 25.0205
715, 25.0618
710, 25.1753
705, 25.2318
700, 25.3096
695, 25.4266
690, 25.5555
685, 25.6535
680, 25.6337
675, 25.4036
670, 25.2517
665, 25.0042
660, 24.7426
655, 24.3796
650, 23.9883
645, 23.6557
640, 23.2747
635, 22.8493
630, 22.4044
625, 21.9339
620, 21.4578
615, 20.8985
610, 20.3058
605, 19.7178
600, 19.0951
595, 18.5101
590, 18.0739
585, 17.7006
580, 17.4896
575, 17.3544
570, 17.3157
565, 17.3382
560, 17.3737
555, 17.1147
550, 17.0061
545, 17.002
540, 17.0184
535, 17.0685
530, 17.1449
525, 17.2147
520, 17.3529
515, 17.5429
510, 17.7983
505, 17.9069
500, 17.7965
495, 17.3938
490, 17.0116
485, 16.9236
480, 17.4547
475, 17.7776
470, 18.0459
465, 18.3099
460, 18.3906
455, 18.3677
450, 18.2716
445, 18.036
440, 18.2126
435, 18.3429
430, 18.4551
425, 18.4751
420, 18.5372
415, 18.6246
410, 18.7369
405, 18.839
400, 18.9247
395, 18.9984
390, 19.0517
385, 19.0889
380, 19.2303
375, 19.1966
370, 20.0094
365, 19.9771
360, 18.6894
355, 17.665
350, 16.9421
345, 16.5932
340, 16.5532
335, 16.5532
330, 16.5532
325, 16.5532
320, 16.5532
315, 16.7005
310, 16.5532
305, 16.5532
300, 16.5532

File: 35-BiI-2nd.Sample.Raw.csv
nm, %R
1100, 21.1332
1095, 21.2106
1090, 21.2977
1085, 21.3647
1080, 21.4439
1075, 21.5111
1070, 21.58
1065, 21.6713
1060, 21.7351
1055, 21.806
1050, 21.8855
1045, 21.957
1040, 22.027
1035, 22.1175
1030, 22.1869
1025, 22.2522
1020, 22.3306
1015, 22.398
1010, 22.4672
1005, 22.5438
1000, 22.6095
995, 22.6858
990, 22.7662
985, 22.8366
980, 22.9102
975, 22.9889
970, 23.0599
965, 23.1373
960, 23.2056
955, 23.2827
950, 23.3613
945, 23.4247
940, 23.52
935, 23.5861
930, 23.6494
925, 23.7235
920, 23.7833
915, 23.8575
910, 23.9424
905, 24.0045
900, 24.0812
895, 24.1456
890, 24.2013
885, 24.2912
880, 24.3475
875, 24.409
870, 24.4812
865, 24.5043
860, 24.6002
855, 24.6002
850, 24.6002
845, 24.6002
840, 24.6002
835, 24.6002
830, 24.6002
825, 24.6002
820, 24.6002
815, 24.6002
810, 24.6002
805, 24.6002
800, 24.6002
795, 24.6002
790, 24.6002
785, 24.6002
780, 25.032
775, 26.6938
770, 26.5977
765, 26.6483
760, 26.6297
755, 26.4437
750, 26.3051
745, 26.2435
740, 26.2424
735, 26.1228
730, 26.0666
725, 26.0507
720, 26.0044
715, 25.9022
710, 25.8801
705, 25.6873
700, 24.7812
695, 24.9573
690, 25.1265
685, 25.4991
680, 25.7373
675, 25.3294
670, 25.2761
665, 25.2148
660, 25.2546
655, 25.1507
650, 25.172
645, 25.1493
640, 25.0581
635, 24.9394
630, 24.8803
625, 24.644
620, 24.5259
615, 24.3149
610, 24.1434
605, 23.8189
600, 23.6047
595, 23.3192
590, 22.9399
585, 22.5177
580, 22.0601
575, 21.5464
570, 21.0071
565, 20.5106
560, 19.968
555, 18.6796
550, 17.7142
545, 17.056
540, 16.5729
535, 16.2302
530, 16.0426
525, 15.8285
520, 16.1201
515, 16.6177
510, 18.0106
505, 18.6163
500, 17.3121
495, 15.1153
490, 12.6271
485, 11.8011
480, 13.4415
475, 14.3226
470, 15.0318
465, 15.7616
460, 16.3929
455, 16.6575
450, 16.8813
445, 16.8545
440, 17.762
435, 18.4086
430, 18.8156
425, 19.1221
420, 19.3709
415, 19.6683
410, 20.1644
405, 20.3734
400, 20.1352
395, 19.8156
390, 19.6041
385, 19.7199
380, 18.6089
375, 18.6089
370, 18.6089
365, 18.6089
360, 18.6089
355, 18.6089
350, 18.6089
345, 18.6089
340, 18.6089
335, 18.6089
330, 18.6089
325, 18.6089
320, 18.6089
315, 18.6089
310, 18.6089
305, 18.6089
300, 18.6089

File: 36-Cs3Sb2I9.Sample.Raw.csv
nm, %R
900, 76.7173
895, 77.3324
890, 77.9299
885, 78.4933
880, 79.0085
875, 79.5752
870, 80.0811
865, 80.4168
860, 80.5107
855, 75.4709
850, 70.7172
845, 73.5737
840, 74.5482
835, 75.5612
830, 75.6773
825, 76.7748
820, 76.9739
815, 76.6331
810, 75.8337
805, 75.7951
800, 76.2194
795, 75.5926
790, 75.1535
785, 75.4647
780, 75.269
775, 74.8202
770, 74.7859
765, 74.6744
760, 74.3529
755, 73.9638
750, 73.8539
745, 73.7191
740, 73.5467
735, 73.3796
730, 73.1403
725, 72.9427
720, 72.8649
715, 72.4866
710, 72.2635
705, 72.1138
700, 72.0365
695, 71.8571
690, 71.5591
685, 71.3861
680, 71.454
675, 71.2116
670, 71.2101
665, 71.0673
660, 70.9728
655, 70.7199
650, 70.7564
645, 70.5157
640, 70.5012
635, 70.3422
630, 70.2515
625, 70.1451
620, 70.0636
615, 69.906
610, 69.8084
605, 69.7018
600, 69.6125
595, 69.3405
590, 69.271
585, 69.0622
580, 68.8551
575, 68.6908
570, 68.5386
565, 68.3841
560, 68.3022
555, 68.0538
550, 67.9666
545, 67.9103
540, 67.8434
535, 67.8494
530, 68.0198
525, 68.1748
520, 68.4135
515, 68.4661
510, 68.3059
505, 67.7327
500, 67.2286
495, 66.9321
490, 66.6527
485, 66.3041
480, 66.4685
475, 66.2583
470, 65.956
465, 65.5626
460, 65.2181
455, 64.8784
450, 64.7677
445, 64.7552
440, 64.4962
435, 64.2168
430, 64.0318
425, 63.8541
420, 63.6409
415, 63.3371
410, 63.2263
405, 63.0239
400, 62.7286