Folder: campaign1/UV-Vis data/Reflection

Note: README.md
# campaign1
raw data for campaign 1.0

File: 1-FAPbI3.Sample.Raw.csv
nm, %R
1100, 15.4722
1096, 15.7405
1092, 16.0639
1088, 16.3562
1084, 16.6827
1080, 17.0322
1076, 17.3933
1072, 17.7645
1068, 18.1267
1064, 18.5103
1060, 18.91
1056, 19.3046
1052, 19.7217
1048, 20.1352
1044, 20.5538
1040, 20.9863
1036, 21.4148
1032, 21.8333
1028, 22.2498
1024, 22.6773
1020, 23.09
1016, 23.5066
1012, 23.92
1008, 24.2975
1004, 24.6856
1000, 25.0472
996, 25.4048
992, 25.745
988, 26.0588
984, 26.368
980, 26.6331
976, 26.9001
972, 27.1359
968, 27.3406
964, 27.5218
960, 27.664
956, 27.7775
952, 27.8635
948, 27.9109
944, 27.9275
940, 27.8973
936, 27.8388
932, 27.73
928, 27.5971
924, 27.4135
920, 27.1991
916, 26.9446
912, 26.6263
908, 26.3142
904, 25.949
900, 25.5256
896, 25.1008
892, 24.6364
888, 24.133
884, 23.625
880, 23.0975
876, 22.5556
872, 22.0411
868, 21.5133
864, 20.9851
860, 20.4897
856, 20.4897
852, 20.4897
848, 20.4897
844, 20.4897
840, 20.4897
836, 20.4897
832, 20.4897
828, 20.4897
824, 20.4897
820, 20.4897
816, 20.4897
812, 20.4897
808, 20.2252
804, 19.9371
800, 19.9715
796, 19.9996
792, 20.0103
788, 20.0816
784, 20.0953
780, 20.1326
776, 20.1627
772, 20.2099
768, 20.2618
764, 20.2449
760, 20.3063
756, 20.3359
752, 20.329
748, 20.3597
744, 20.3753
740, 20.4095
736, 20.4115
732, 20.4336
728, 18.4649
724, 18.4507
720, 18.4238
716, 18.385
712, 18.2558
708, 18.2065
704, 18.6604
700, 19.2722
696, 19.0912
692, 18.8818
688, 18.7079
684, 18.6609
680, 18.6632
676, 18.5606
672, 18.5739
668, 18.4387
664, 18.3903
660, 18.3915
656, 18.4361
652, 18.381
648, 18.4483
644, 18.5135
640, 18.6499
636, 18.7705
632, 18.8849
628, 18.9435
624, 19.0474
620, 19.1525
616, 19.2458
612, 19.4162
608, 19.5147
604, 19.6586
600, 19.7676
596, 19.8299
592, 19.9339
588, 20.0013
584, 20.1131
580, 20.1587
576, 20.2032
572, 20.285
568, 20.3734
564, 20.4136
560, 20.5324
556, 20.7794
552, 20.9202
548, 21.0324
544, 21.1313
540, 21.2187
536, 21.3377
532, 21.3906
528, 21.4888
524, 21.5243
520, 21.5457
516, 21.5226
512, 21.4577
508, 21.364
504, 21.3124
500, 21.3658
496, 21.509
492, 21.6163
488, 21.61
484, 21.2745
480, 20.8699
476, 20.6339
472, 20.3665
468, 20.2597
464, 20.0667
460, 20.1417
456, 20.2949
452, 20.4886
448, 20.7861
444, 20.9065
440, 21.0576
436, 21.3021
432, 21.6905
428, 22.1437
424, 22.6309
420, 23.4295
416, 24.0698
412, 24.9164
408, 25.3583
404, 25.6314
400, 26.0644
396, 26.507
392, 26.731
388, 26.8271
384, 26.8333
380, 26.8114
376, 26.8114
372, 26.8114
368, 26.8114
364, 26.8114
360, 26.8114
356, 26.8114
352, 26.8114
348, 26.8114
344, 26.8114
340, 26.8114
336, 26.8114
332, 26.8114
328, 26.8114
324, 26.8114
320, 26.8114
316, 26.8114
312, 26.8114
308, 26.8114
304, 26.8114
300, 26.8114

File: 2-FAPbI3 MAPbBr3 9-1.Sample.Raw.csv
nm, %R
1100, 10.6876
1096, 10.9731
1092, 11.2909
1088, 11.6436
1084, 12.0598
1080, 12.4787
1076, 12.9338
1072, 13.4297
1068, 13.9376
1064, 14.4822
1060, 15.0441
1056, 15.6279
1052, 16.2491
1048, 16.8841
1044, 17.5475
1040, 18.2157
1036, 18.8953
1032, 19.5823
1028, 20.2714
1024, 20.9819
1020, 21.6791
1016, 22.394
1012, 23.1049
1008, 23.7835
1004, 24.4775
1000, 25.1527
996, 25.8114
992, 26.4509
988, 27.0818
984, 27.6798
980, 28.2694
976, 28.8232
972, 29.3518
968, 29.8538
964, 30.3183
960, 30.7405
956, 31.1223
952, 31.4591
948, 31.757
944, 32.0224
940, 32.2247
936, 32.3747
932, 32.4512
928, 32.517
924, 32.5092
920, 32.4623
916, 32.3314
912, 32.1357
908, 31.8715
904, 31.5403
900, 31.1296
896, 30.6364
892, 30.1125
888, 29.474
884, 28.7513
880, 27.9648
876, 27.0729
872, 26.1187
868, 25.1019
864, 23.9789
860, 22.8258
856, 22.8258
852, 22.8258
848, 22.8258
844, 22.8258
840, 22.8258
836, 22.8258
832, 22.8258
828, 22.8258
824, 22.8258
820, 22.8258
816, 22.8258
812, 22.8258
808, 22.5312
804, 22.2102
800, 22.2486
796, 22.2798
792, 22.2918
788, 22.3712
784, 22.3865
780, 22.428
776, 22.4616
772, 22.5142
768, 22.572
764, 22.5532
760, 22.6215
756, 22.6545
752, 22.6468
748, 22.681
744, 22.6984
740, 22.7365
736, 22.7388
732, 22.7634
728, 21.5057
724, 20.6133
720, 20.8678
716, 21.1341
712, 21.2217
708, 21.316
704, 21.914
700, 22.4902
696, 22.3266
692, 22.1654
688, 21.7643
684, 21.4641
680, 21.0499
676, 20.6113
672, 20.1657
668, 19.5253
664, 18.9562
660, 18.4609
656, 17.9599
652, 17.4563
648, 17.1363
644, 16.8531
640, 16.7453
636, 16.6659
632, 16.7924
628, 16.9434
624, 17.2601
620, 17.6472
616, 18.0385
612, 18.523
608, 18.9858
604, 19.4416
600, 19.8751
596, 20.262
592, 20.6007
588, 20.8162
584, 20.924
580, 20.8744
576, 20.7786
572, 20.7239
568, 20.6557
564, 20.5921
560, 20.6043
556, 20.773
552, 20.9107
548, 21.1127
544, 21.3762
540, 21.6173
536, 21.7501
532, 21.6783
528, 21.5827
524, 21.4043
520, 21.2495
516, 21.0535
512, 20.9013
508, 20.8053
504, 20.7374
500, 20.8456
496, 21.0437
492, 21.21
488, 21.2694
484, 20.9589
480, 20.6609
476, 20.5304
472, 20.2803
468, 20.2229
464, 20.0546
460, 20.0662
456, 20.2014
452, 20.4178
448, 20.6676
444, 20.7832
440, 20.8191
436, 21.025
432, 21.2758
428, 21.6884
424, 22.091
420, 22.7227
416, 23.2956
412, 24.0097
408, 24.3551
404, 24.5031
400, 24.8409
396, 25.1388
392, 25.3526
388, 25.6139
384, 25.6198
380, 25.5989
376, 25.5989
372, 25.5989
368, 25.5989
364, 25.5989
360, 25.5989
356, 25.5989
352, 25.5989
348, 25.5989
344, 25.5989
340, 25.5989
336, 25.5989
332, 25.5989
328, 25.5989
324, 25.5989
320, 25.5989
316, 25.5989
312, 25.5989
308, 25.5989
304, 25.5989
300, 25.5989

File: 3-FAPbI3 MAPbBr3 8-2.Sample.Raw.csv
nm, %R
1100, 12.047
1096, 11.7381
1092, 11.4391
1088, 11.1764
1084, 10.9308
1080, 10.7024
1076, 10.5258
1072, 10.3792
1068, 10.2448
1064, 10.1425
1060, 10.0853
1056, 10.0523
1052, 10.0661
1048, 10.1183
1044, 10.2105
1040, 10.3407
1036, 10.5077
1032, 10.71
1028, 10.9485
1024, 11.244
1020, 11.5751
1016, 11.9417
1012, 12.3467
1008, 12.7786
1004, 13.2558
1000, 13.77
996, 14.3103
992, 14.8793
988, 15.4767
984, 16.0878
980, 16.7202
976, 17.3864
972, 18.0737
968, 18.7752
964, 19.4937
960, 20.2162
956, 20.9396
952, 21.6656
948, 22.3928
944, 23.1192
940, 23.8309
936, 24.5266
932, 25.1947
928, 25.8651
924, 26.5066
920, 27.1258
916, 27.7319
912, 28.288
908, 28.8265
904, 29.3194
900, 29.7603
896, 30.1656
892, 30.5759
888, 30.8876
884, 31.147
880, 31.3731
876, 31.4993
872, 31.591
868, 31.6363
864, 31.5315
860, 31.4133
856, 31.4133
852, 31.4133
848, 31.4133
844, 31.4133
840, 31.4133
836, 31.4133
832, 31.4133
828, 31.4133
824, 31.4133
820, 29.096
816, 25.9903
812, 25.0742
808, 24.1011
804, 22.2656
800, 20.7894
796, 19.5063
792, 18.0483
788, 16.6733
784, 15.2677
780, 13.9326
776, 12.7971
772, 11.9067
768, 11.3239
764, 11.0245
760, 11.1974
756, 11.5895
752, 12.038
748, 12.5248
744, 12.8551
740, 13.2299
736, 13.5741
732, 13.9548
728, 14.4135
724, 14.817
720, 15.289
716, 15.8813
712, 16.4279
708, 16.9843
704, 18.2166
700, 19.3798
696, 19.8803
692, 20.2225
688, 20.4055
684, 21.1124
680, 21.4762
676, 21.7284
672, 21.922
668, 21.9733
664, 21.9166
660, 21.8449
656, 21.665
652, 21.3456
648, 21.0499
644, 20.5807
640, 20.2134
636, 19.7084
632, 19.2385
628, 18.7444
624, 18.3215
620, 17.9858
616, 17.674
612, 17.531
608, 17.45
604, 17.4896
600, 17.5926
596, 17.7684
592, 18.0217
588, 18.3023
584, 18.6396
580, 18.9772
576, 19.3049
572, 19.5552
568, 19.6962
564, 19.6399
560, 19.6757
556, 20.1395
552, 20.2029
548, 20.2685
544, 20.3258
540, 20.4204
536, 20.5095
532, 20.5579
528, 20.6133
524, 20.5403
520, 20.4201
516, 20.1196
512, 19.7897
508, 19.5428
504, 19.5373
500, 19.9657
496, 20.6957
492, 21.4367
488, 21.934
484, 21.1831
480, 20.4774
476, 20.1467
472, 19.6586
468, 19.3463
464, 19.0484
460, 19.0687
456, 19.2268
452, 19.5235
448, 20.21
444, 19.9984
440, 19.9233
436, 19.9489
432, 20.0457
428, 20.3263
424, 20.5288
420, 21.0259
416, 21.4311
412, 22.0134
408, 22.2454
404, 22.2743
400, 22.6169
396, 22.8551
392, 23.0381
388, 23.2538
384, 23.4987
380, 23.6329
376, 23.3632
372, 22.9651
368, 22.6311
364, 23.0355
360, 23.0355
356, 23.0355
352, 23.0355
348, 23.0355
344, 23.0355
340, 23.0355
336, 23.0355
332, 23.0355
328, 23.0355
324, 23.0355
320, 23.0355
316, 23.0355
312, 23.0355
308, 23.0355
304, 23.0355
300, 23.0355

File: 4-FAPbI3 MAPbBr3 7-3.Sample.Raw.csv
nm, %R
1100, 17.7243
1096, 17.3536
1092, 16.9867
1088, 16.5969
1084, 16.2502
1080, 15.8777
1076, 15.5378
1072, 15.2103
1068, 14.8718
1064, 14.5452
1060, 14.2468
1056, 13.9644
1052, 13.6899
1048, 13.4341
1044, 13.192
1040, 12.9641
1036, 12.7643
1032, 12.5814
1028, 12.4231
1024, 12.2998
1020, 12.1929
1016, 12.1167
1012, 12.0736
1008, 12.0483
1004, 12.061
1000, 12.1147
996, 12.1855
992, 12.2903
988, 12.425
984, 12.5931
980, 12.7962
976, 13.0442
972, 13.3197
968, 13.6179
964, 13.9597
960, 14.3232
956, 14.719
952, 15.1423
948, 15.5865
944, 16.0664
940, 16.5546
936, 17.0593
932, 17.5858
928, 18.135
924, 18.6988
920, 19.2708
916, 19.8526
912, 20.4364
908, 21.0401
904, 21.6346
900, 22.2024
896, 22.7866
892, 23.3658
888, 23.929
884, 24.487
880, 25.0241
876, 25.5317
872, 26.0188
868, 26.498
864, 26.9061
860, 27.3222
856, 27.3222
852, 27.3222
848, 27.3222
844, 27.3222
840, 27.3222
836, 27.3222
832, 27.3222
828, 27.3222
824, 27.3222
820, 27.3222
816, 27.3222
812, 27.6733
808, 27.981
804, 26.9057
800, 26.5972
796, 26.2058
792, 25.7134
788, 25.1963
784, 24.7937
780, 23.9085
776, 23.3267
772, 22.5146
768, 21.7791
764, 20.6164
760, 19.7258
756, 18.688
752, 17.719
748, 16.7354
744, 15.8117
740, 15.1358
736, 14.7309
732, 14.5776
728, 14.5886
724, 14.7785
720, 14.9486
716, 15.0657
712, 15.0428
708, 15.0821
704, 15.7611
700, 16.4829
696, 16.56
692, 16.4799
688, 16.4421
684, 16.9447
680, 17.2213
676, 17.4775
672, 17.7706
668, 18.0083
664, 18.2187
660, 18.5025
656, 18.7418
652, 18.8949
648, 19.1854
644, 19.2923
640, 19.5014
636, 19.6317
632, 19.7088
628, 19.6751
624, 19.6236
620, 19.5677
616, 19.4292
612, 19.3392
608, 19.1084
604, 18.9372
600, 18.7372
596, 18.5288
592, 18.3572
588, 18.2286
584, 18.1055
580, 18.0198
576, 17.9984
572, 18.0079
568, 18.039
564, 18.0508
560, 18.2079
556, 18.8306
552, 19.0089
548, 19.1474
544, 19.2348
540, 19.3191
536, 19.4167
532, 19.4598
528, 19.5638
524, 19.5793
520, 19.5353
516, 19.3727
512, 19.1119
508, 18.9169
504, 18.9797
500, 19.3826
496, 20.124
492, 20.8882
488, 21.4061
484, 20.7041
480, 20.0586
476, 19.7862
472, 19.3482
468, 19.0707
464, 18.7606
460, 18.7709
456, 18.8978
452, 19.1779
448, 19.7171
444, 19.4422
440, 19.2381
436, 19.1785
432, 19.1841
428, 19.3521
424, 19.4516
420, 19.8336
416, 20.1992
412, 20.675
408, 20.8865
404, 20.8798
400, 21.2341
396, 21.5478
392, 21.8572
388, 22.1253
384, 22.3928
380, 22.6425
376, 22.6425
372, 22.6425
368, 22.6425
364, 22.6425
360, 22.6425
356, 22.6425
352, 22.6425
348, 22.6425
344, 22.6425
340, 22.6425
336, 22.6425
332, 22.6425
328, 22.6425
324, 22.6425
320, 22.6425
316, 22.6425
312, 22.6425
308, 22.6425
304, 22.6425
300, 22.6425

File: 5-FAPbI3 MAPbBr3 6-4.Sample.Raw.csv
nm, %R
1100, 20.2864
1096, 19.876
1092, 19.4658
1088, 19.0303
1084, 18.6093
1080, 18.1681
1076, 17.757
1072, 17.3445
1068, 16.9118
1064, 16.4898
1060, 16.0801
1056, 15.6661
1052, 15.2837
1048, 14.9036
1044, 14.4989
1040, 14.1299
1036, 13.7756
1032, 13.4166
1028, 13.0857
1024, 12.7791
1020, 12.4799
1016, 12.215
1012, 11.9698
1008, 11.7324
1004, 11.5403
1000, 11.3771
996, 11.2472
992, 11.162
988, 11.0791
984, 11.0579
980, 11.056
976, 11.1071
972, 11.1934
968, 11.325
964, 11.4941
960, 11.7042
956, 11.9547
952, 12.2431
948, 12.5637
944, 12.9409
940, 13.3331
936, 13.7687
932, 14.2404
928, 14.7523
924, 15.3005
920, 15.8836
916, 16.4827
912, 17.1011
908, 17.7466
904, 18.4078
900, 19.0646
896, 19.7587
892, 20.4592
888, 21.169
884, 21.9136
880, 22.6316
876, 23.3213
872, 24.0444
868, 24.7458
864, 25.3812
860, 26.0493
856, 26.0493
852, 26.0493
848, 26.0493
844, 26.0493
840, 26.0493
836, 26.0493
832, 26.0493
828, 26.0493
824, 26.0493
820, 26.0493
816, 26.0493
812, 26.0493
808, 25.713
804, 25.3467
800, 25.3904
796, 25.4262
792, 25.4398
788, 25.5304
784, 25.5478
780, 25.5953
776, 25.6336
772, 25.6936
768, 25.7596
764, 24.1808
760, 23.3059
756, 22.3301
752, 21.0669
748, 19.9689
744, 18.7928
740, 17.4082
736, 16.174
732, 14.9167
728, 13.834
724, 13.0175
720, 12.699
716, 12.7763
712, 13.2506
708, 14.1174
704, 15.5827
700, 16.8164
696, 17.0368
692, 17.0048
688, 16.68
684, 16.8521
680, 16.8889
676, 17.007
672, 17.1893
668, 17.3195
664, 17.4642
660, 17.7216
656, 17.9463
652, 18.1627
648, 18.4436
644, 18.6034
640, 18.892
636, 19.0432
632, 19.1756
628, 19.2602
624, 19.2902
620, 19.3007
616, 19.2492
612, 19.1925
608, 19.045
604, 18.9278
600, 18.7968
596, 18.5543
592, 18.3986
588, 18.2269
584, 18.0926
580, 17.9731
576, 17.8633
572, 17.8249
568, 17.7844
564, 17.7437
560, 17.839
556, 18.2207
552, 18.3688
548, 18.5134
544, 18.672
540, 18.8038
536, 18.947
532, 19.0441
528, 19.164
524, 19.1958
520, 19.2332
516, 19.1665
512, 19.0749
508, 19.0364
504, 19.1184
500, 19.5276
496, 20.1036
492, 20.6957
488, 21.0982
484, 20.658
480, 20.2778
476, 20.1045
472, 19.7977
468, 19.6614
464, 19.4647
460, 19.4561
456, 19.5433
452, 19.6844
448, 20.0175
444, 19.7876
440, 19.5649
436, 19.4855
432, 19.4126
428, 19.4834
424, 19.5748
420, 19.8757
416, 20.2096
412, 20.6657
408, 20.9339
404, 20.865
400, 21.2904
396, 21.5921
392, 22.1005
388, 22.5071
384, 22.9113
380, 23.1762
376, 23.1762
372, 23.1762
368, 23.1762
364, 23.1762
360, 23.1762
356, 23.1762
352, 23.1762
348, 23.1762
344, 23.1762
340, 23.1762
336, 23.1762
332, 23.1762
328, 23.1762
324, 23.1762
320, 23.1762
316, 23.1762
312, 23.1762
308, 23.1762
304, 23.1762
300, 23.1762

File: 6-FAPbI3 MAPbBr3 5-5.Sample.Raw.csv
nm, %R
1100, 23.038
1096, 22.8087
1092, 22.61
1088, 22.3483
1084, 22.1169
1080, 21.8479
1076, 21.6004
1072, 21.3422
1068, 21.0509
1064, 20.7626
1060, 20.4818
1056, 20.1745
1052, 19.8728
1048, 19.5621
1044, 19.243
1040, 18.9403
1036, 18.6258
1032, 18.3141
1028, 17.992
1024, 17.6964
1020, 17.3921
1016, 17.0847
1012, 16.7786
1008, 16.4636
1004, 16.1623
1000, 15.8722
996, 15.59
992, 15.3216
988, 15.0648
984, 14.8184
980, 14.5665
976, 14.3588
972, 14.1515
968, 13.9736
964, 13.8087
960, 13.6636
956, 13.534
952, 13.4339
948, 13.3531
944, 13.3122
940, 13.2941
936, 13.3007
932, 13.327
928, 13.3935
924, 13.4854
920, 13.6075
916, 13.7693
912, 13.9376
908, 14.1532
904, 14.3778
900, 14.6462
896, 14.9315
892, 15.2716
888, 15.6084
884, 15.9863
880, 16.3835
876, 16.7905
872, 17.2488
868, 17.7182
864, 18.1666
860, 18.6844
856, 18.6844
852, 18.6844
848, 18.6844
844, 18.6844
840, 18.6844
836, 18.6844
832, 18.6844
828, 18.6844
824, 18.6844
820, 18.6844
816, 18.6844
812, 18.6844
808, 18.4432
804, 18.1805
800, 18.2119
796, 18.2375
792, 18.2473
788, 18.3123
784, 18.3248
780, 18.3588
776, 18.3863
772, 18.4293
768, 18.4766
764, 18.4612
760, 18.5171
756, 18.5442
752, 18.5379
748, 18.5659
744, 18.5801
740, 18.6113
736, 18.6131
732, 18.6333
728, 18.6572
724, 18.6628
720, 18.6805
716, 18.6955
712, 19.1699
708, 19.2372
704, 19.2995
700, 19.5129
696, 19.0262
692, 18.6965
688, 18.3444
684, 11.2074
680, 24.3007
676, 20.6729
672, 19.125
668, 19.0496
664, 18.8109
660, 18.4142
656, 17.9429
652, 17.4165
648, 17.1333
644, 16.9116
640, 16.8855
636, 16.8292
632, 16.9126
628, 16.9315
624, 16.979
620, 17.0956
616, 17.1816
612, 17.2787
608, 17.3467
604, 17.4146
600, 17.5095
596, 17.5371
592, 17.5628
588, 17.5636
584, 17.5814
580, 17.5853
576, 17.5411
572, 17.4846
568, 17.4892
564, 17.48
560, 17.4248
556, 17.4176
552, 17.4452
548, 17.4666
544, 17.4775
540, 17.5294
536, 17.6183
532, 17.6903
528, 17.8245
524, 17.917
520, 18.0438
516, 18.1288
512, 18.231
508, 18.37
504, 18.5103
500, 18.6654
496, 18.8842
492, 19.0991
488, 19.1978
484, 19.2199
480, 19.2147
476, 19.3244
472, 19.3099
468, 19.4411
464, 19.4401
460, 19.5254
456, 19.5739
452, 19.6562
448, 19.6342
444, 19.5406
440, 19.4581
436, 19.4188
432, 19.3727
428, 19.4151
424, 19.3379
420, 19.6561
416, 19.8096
412, 20.0993
408, 20.2258
404, 20.0579
400, 20.357
396, 20.6195
392, 20.6137
388, 20.6132
384, 20.618
380, 20.6012
376, 20.6012
372, 20.6012
368, 20.6012
364, 20.6012
360, 20.6012
356, 20.6012
352, 20.6012
348, 20.6012
344, 20.6012
340, 20.6012
336, 20.6012
332, 20.6012
328, 20.6012
324, 20.6012
320, 20.6012
316, 20.6012
312, 20.6012
308, 20.6012
304, 20.6012
300, 20.6012

File: 7-FAPbI3 MAPbBr3 4-6 .Sample.Raw.csv
nm, %R
1100, 25.3069
1096, 25.1303
1092, 24.952
1088, 24.7491
1084, 24.553
1080, 24.3257
1076, 24.1282
1072, 23.9037
1068, 23.6481
1064, 23.4001
1060, 23.1441
1056, 22.8486
1052, 22.5524
1048, 22.2506
1044, 21.9417
1040, 21.6334
1036, 21.3006
1032, 20.947
1028, 20.5969
1024, 20.2529
1020, 19.8739
1016, 19.5063
1012, 19.1487
1008, 18.7492
1004, 18.3552
1000, 17.9528
996, 17.5518
992, 17.1442
988, 16.7509
984, 16.3449
980, 15.9305
976, 15.5329
972, 15.1483
968, 14.7604
964, 14.3883
960, 14.0289
956, 13.6637
952, 13.3294
948, 12.9937
944, 12.6964
940, 12.398
936, 12.1403
932, 11.8888
928, 11.6973
924, 11.5028
920, 11.346
916, 11.2141
912, 11.1148
908, 11.0558
904, 11.0324
900, 11.038
896, 11.076
892, 11.1894
888, 11.3164
884, 11.4975
880, 11.7219
876, 11.9674
872, 12.2844
868, 12.6475
864, 13.0029
860, 13.4413
856, 13.4413
852, 13.4413
848, 13.4413
844, 13.4413
840, 13.4413
836, 13.4413
832, 13.4413
828, 13.4413
824, 13.4413
820, 13.4413
816, 17.513
812, 18.5352
808, 19.2515
804, 19.2723
800, 19.868
796, 20.5393
792, 21.241
788, 22.0334
784, 22.5933
780, 23.2901
776, 23.825
772, 24.5193
768, 25.149
764, 25.412
760, 25.9787
756, 26.2924
752, 26.531
748, 26.7409
744, 26.8701
740, 26.976
736, 26.9568
732, 26.8751
728, 26.6575
724, 26.4059
720, 26.0307
716, 25.5472
712, 25.0023
708, 24.3538
704, 24.2067
700, 23.9866
696, 23.0288
692, 21.965
688, 20.6858
684, 19.9979
680, 19.027
676, 18.0073
672, 17.1858
668, 16.4139
664, 15.8585
660, 15.7164
656, 15.8846
652, 16.3214
648, 17.105
644, 17.7173
640, 18.072
636, 17.969
632, 17.6109
628, 17.1233
624, 16.7156
620, 16.4947
616, 16.3343
612, 16.3189
608, 16.3223
604, 16.4173
600, 16.5287
596, 16.6143
592, 16.7868
588, 16.9111
584, 17.0397
580, 17.1244
576, 17.1533
572, 17.1814
568, 17.129
564, 16.9766
560, 16.9245
556, 17.3145
552, 17.2837
548, 17.1939
544, 17.0908
540, 17.0002
536, 16.9298
532, 16.8305
528, 16.7865
524, 16.6714
520, 16.5849
516, 16.392
512, 16.1581
508, 16.0712
504, 16.2354
500, 16.8362
496, 17.7144
492, 18.67
488, 19.3345
484, 18.7212
480, 18.1859
476, 18.0256
472, 17.7293
468, 17.6061
464, 17.4765
460, 17.6344
456, 17.934
452, 18.3716
448, 19.114
444, 18.9377
440, 18.7582
436, 18.726
432, 18.6875
428, 18.7356
424, 18.6961
420, 18.8895
416, 18.8641
412, 19.0578
408, 18.8876
404, 18.5024
400, 18.579
396, 18.5939
392, 18.7587
388, 19.0196
384, 19.3641
380, 19.7824
376, 19.7824
372, 19.7824
368, 19.7824
364, 19.7824
360, 19.7824
356, 19.7824
352, 19.7824
348, 19.7824
344, 19.7824
340, 19.7824
336, 19.7824
332, 19.7824
328, 19.7824
324, 19.7824
320, 19.7824
316, 19.7824
312, 19.7824
308, 19.7824
304, 19.7824
300, 19.7824

File: 8-3FAPbI3-7MAPbBr3.Sample.Raw.csv
nm, %R
1200, 24.7964
1196, 24.9372
1192, 25.0555
1188, 25.1863
1184, 25.304
1180, 25.4127
1176, 25.5171
1172, 25.6085
1168, 25.7014
1164, 25.7903
1160, 25.8823
1156, 25.935
1152, 26.0212
1148, 26.0641
1144, 26.1188
1140, 26.1627
1136, 26.1873
1132, 26.2357
1128, 26.2443
1124, 26.2694
1120, 26.251
1116, 26.2431
1112, 26.2213
1108, 26.2104
1104, 26.1605
1100, 26.1063
1096, 26.0713
1092, 25.9935
1088, 25.9105
1084, 25.8161
1080, 25.6903
1076, 25.5952
1072, 25.4719
1068, 25.3482
1064, 25.2043
1060, 25.04
1056, 24.8711
1052, 24.6917
1048, 24.4984
1044, 24.2909
1040, 24.0686
1036, 23.84
1032, 23.5916
1028, 23.3444
1024, 23.0799
1020, 22.7957
1016, 22.5003
1012, 22.205
1008, 21.8823
1004, 21.5751
1000, 21.2456
996, 20.9078
992, 20.5621
988, 20.1952
984, 19.8343
980, 19.4358
976, 19.0642
972, 18.6685
968, 18.2748
964, 17.8682
960, 17.4571
956, 17.056
952, 16.6473
948, 16.2372
944, 15.831
940, 15.431
936, 15.0309
932, 14.6519
928, 14.2483
924, 13.8814
920, 13.5279
916, 13.1634
912, 12.8287
908, 12.5211
904, 12.199
900, 11.9269
896, 11.6783
892, 11.4451
888, 11.2326
884, 11.0763
880, 10.9574
876, 10.8476
872, 10.7952
868, 10.8055
864, 10.7852
860, 10.8746
856, 10.8746
852, 10.8746
848, 10.8746
844, 10.8746
840, 13.5005
836, 14.407
832, 13.3457
828, 12.4522
824, 12.1585
820, 11.8467
816, 11.5777
812, 11.5227
808, 11.3406
804, 11.6502
800, 11.6947
796, 11.6838
792, 11.6666
788, 11.6273
784, 11.6405
780, 11.6356
776, 11.6776
772, 11.6594
768, 11.7134
764, 11.7656
760, 11.7465
756, 11.7594
752, 11.7452
748, 11.7835
744, 11.7992
740, 11.7936
736, 11.8041
732, 11.8295
728, 11.8066
724, 11.8525
720, 11.8878
716, 11.8689
712, 11.8951
708, 11.8927
704, 11.9181
700, 11.9184
696, 11.9215
692, 11.911
688, 21.9645
684, 26.2802
680, 25.4186
676, 24.6416
672, 23.7771
668, 22.6821
664, 21.5021
660, 20.3298
656, 19.0288
652, 17.6951
648, 16.4026
644, 15.2034
640, 14.2179
636, 13.5749
632, 13.3973
628, 13.7665
624, 14.7445
620, 16.2269
616, 17.8585
612, 18.9305
608, 18.824
604, 18.5852
600, 17.8036
596, 17.2342
592, 16.8918
588, 16.7521
584, 16.7517
580, 16.8333
576, 17.0518
572, 17.2625
568, 17.5924
564, 18.0381
560, 18.1094
556, 17.7096
552, 17.7834
548, 17.8758
544, 17.9227
540, 17.9454
536, 17.9502
532, 17.9331
528, 17.9429
524, 18.0053
520, 18.1433
516, 18.4141
512, 18.8423
508, 19.1513
504, 19.0518
500, 18.5062
496, 17.5276
492, 16.4449
488, 15.6318
484, 16.8373
480, 18.0046
476, 18.6192
472, 19.3885
468, 20.0504
464, 20.5044
460, 20.4527
456, 20.2676
452, 19.9724
448, 18.9223
444, 19.1831
440, 19.5596
436, 19.7197
432, 19.8609
428, 19.9709
424, 20.0712
420, 20.21
416, 20.1902
412, 20.3556
408, 20.5765
404, 20.6077
400, 20.6088
396, 20.5979
392, 20.6174
388, 20.6332
384, 20.5206
380, 20.5462
376, 20.7948
372, 22.2945
368, 21.3942
364, 20.9036
360, 20.3275
356, 20.0907
352, 19.7311
348, 19.7426
344, 19.6757
340, 19.3723
336, 19.4022
332, 19.4022
328, 19.4022
324, 19.4022
320, 19.4022
316, 20.5359
312, 19.7293
308, 19.7293
304, 19.7293
300, 19.7293

File: 9-2FAPbI3-8MAPbBr3.Sample.Raw.csv
nm, %R
1200, 22.5679
1196, 22.7154
1192, 22.8408
1188, 22.9622
1184, 23.0799
1180, 23.1921
1176, 23.3001
1172, 23.4215
1168, 23.5028
1164, 23.594
1160, 23.6994
1156, 23.7613
1152, 23.8598
1148, 23.9168
1144, 23.9704
1140, 24.0349
1136, 24.0807
1132, 24.1418
1128, 24.1819
1124, 24.2211
1120, 24.2265
1116, 24.2491
1112, 24.2501
1108, 24.2599
1104, 24.2364
1100, 24.2238
1096, 24.203
1092, 24.1661
1088, 24.1163
1084, 24.0494
1080, 23.9728
1076, 23.9124
1072, 23.8405
1068, 23.7598
1064, 23.6533
1060, 23.5389
1056, 23.4129
1052, 23.2878
1048, 23.1529
1044, 23.0009
1040, 22.8358
1036, 22.655
1032, 22.4795
1028, 22.2836
1024, 22.0775
1020, 21.8583
1016, 21.6325
1012, 21.397
1008, 21.1486
1004, 20.902
1000, 20.6485
996, 20.3716
992, 20.0871
988, 19.7927
984, 19.5031
980, 19.1837
976, 18.872
972, 18.5483
968, 18.218
964, 17.8844
960, 17.5374
956, 17.2052
952, 16.8662
948, 16.516
944, 16.1735
940, 15.8308
936, 15.4846
932, 15.1411
928, 14.7909
924, 14.4472
920, 14.146
916, 13.8136
912, 13.4937
908, 13.2069
904, 12.9005
900, 12.631
896, 12.3652
892, 12.1144
888, 11.8908
884, 11.6985
880, 11.5396
876, 11.3711
872, 11.2628
868, 11.1728
864, 11.0707
860, 11.0699
856, 11.0699
852, 11.0699
848, 11.0699
844, 11.0699
840, 13.6901
836, 14.5945
832, 13.5316
828, 12.6371
824, 12.3437
820, 12.033
816, 11.7646
812, 11.7099
808, 11.5279
804, 11.8373
800, 11.8821
796, 11.8716
792, 11.8548
788, 11.816
784, 11.8293
780, 11.8246
776, 11.8668
772, 11.8496
768, 11.9036
764, 11.956
760, 11.9378
756, 11.9509
752, 11.9369
748, 11.9757
744, 11.9917
740, 11.9866
736, 11.9972
732, 12.023
728, 12.0005
724, 12.0465
720, 12.0821
716, 12.0634
712, 12.0899
708, 12.0877
704, 12.1134
700, 12.1138
696, 12.1171
692, 12.1069
688, 12.0843
684, 12.1533
680, 12.1467
676, 12.1848
672, 12.189
668, 12.1749
664, 12.1821
660, 12.2141
656, 17.3378
652, 19.358
648, 18.4
644, 17.485
640, 16.4672
636, 15.6368
632, 14.866
628, 14.2469
624, 13.7871
620, 13.6818
616, 13.9577
612, 14.7228
608, 16.0308
604, 17.8278
600, 19.7659
596, 21.0827
592, 21.0385
588, 20.0588
584, 18.8681
580, 17.9976
576, 17.4524
572, 17.3157
568, 17.3446
564, 17.6782
560, 17.54
556, 16.803
552, 16.8606
548, 17.0032
544, 17.1187
540, 17.2394
536, 17.3267
532, 17.4317
528, 17.5674
524, 17.7757
520, 18.136
516, 18.6258
512, 19.2617
508, 19.7409
504, 19.6332
500, 18.6548
496, 16.9997
492, 15.2587
488, 13.8228
484, 15.4591
480, 17.224
476, 18.1113
472, 19.1101
468, 20.0163
464, 20.5312
460, 20.4989
456, 20.0957
452, 19.685
448, 18.0555
444, 18.4444
440, 18.9912
436, 19.2183
432, 19.3616
428, 19.3536
424, 19.3659
420, 19.355
416, 19.3567
412, 19.3395
408, 19.3094
404, 19.2992
400, 19.2992
396, 19.2861
392, 19.3051
388, 19.3188
384, 19.2047
380, 19.2276
376, 19.466
372, 20.9834
368, 20.0718
364, 19.5672
360, 18.9842
356, 18.7409
352, 18.3739
348, 18.3819
344, 18.3138
340, 18.0053
336, 18.0357
332, 18.0357
328, 18.0357
324, 18.0357
320, 18.0357
316, 19.1886
312, 18.3684
308, 18.3684
304, 18.3684
300, 18.3684