Folder: campaign1/UV-Vis data/Reflection (part 6)

File: 72-CsCuBiI 285C.Sample.Raw.csv
nm, %R
1200, 7.693812
1190, 7.337648
1180, 7.520578
1170, 7.526319
1160, 7.551276
1150, 7.530597
1140, 7.549812
1130, 7.571237
1120, 7.592692
1110, 7.578659
1100, 7.569411
1090, 7.598608
1080, 7.610328
1070, 7.645369
1060, 7.619821
1050, 7.638649
1040, 7.641711
1030, 7.645170
1020, 7.636545
1010, 7.635953
1000, 7.664525
990, 7.600348
980, 7.624732
970, 7.642349
960, 7.586656
950, 7.611727
940, 7.617744
930, 7.600615
920, 7.631048
910, 7.581343
900, 7.571695
890, 7.615022
880, 7.539665
870, 7.528195
860, 7.364530
850, 7.804771
840, 8.811651
830, 3.396720
820, 5.476713
810, 7.628153
800, 6.451706
790, 7.261220
780, 6.259253
770, 7.223971
760, 6.787154
750, 6.558376
740, 7.384847
730, 7.080337
720, 6.889844
710, 7.408391
700, 7.316849
690, 7.418643
680, 7.835741
670, 7.797667
660, 7.572544
650, 7.655216
640, 7.909794
630, 7.826890
620, 8.016403
610, 8.263987
600, 8.114292
590, 8.163702
580, 8.012658
570, 7.672361
560, 7.602845
550, 7.287324
540, 7.126786
530, 7.080852
520, 7.143661
510, 7.252972
500, 6.935766
490, 6.040031
480, 5.792645
470, 6.588969
460, 7.132355
450, 7.231770
440, 7.102872
430, 7.401738
420, 7.460786
410, 7.490102
400, 7.940404

File: 73-CsCuSbI 285C.Sample.Raw.csv
nm, %R
1200, 6.958540
1190, 6.640423
1180, 6.785462
1170, 6.809037
1160, 6.797810
1150, 6.842414
1140, 6.853338
1130, 6.836041
1120, 6.875300
1110, 6.909546
1100, 6.919120
1090, 6.948900
1080, 6.972891
1070, 7.042846
1060, 7.060164
1050, 7.099517
1040, 7.147109
1030, 7.133601
1020, 7.179487
1010, 7.244821
1000, 7.255347
990, 7.261403
980, 7.297994
970, 7.322442
960, 7.333681
950, 7.406989
940, 7.384591
930, 7.398309
920, 7.454574
910, 7.423305
900, 7.451083
890, 7.547765
880, 7.428191
870, 7.422963
860, 7.329075
850, 7.319352
840, 6.966053
830, 7.199494
820, 6.846384
810, 6.754328
800, 6.901419
790, 6.908184
780, 7.033863
770, 6.830719
760, 6.851012
750, 6.858192
740, 6.946328
730, 6.876044
720, 6.812627
710, 6.837722
700, 6.841953
690, 6.789995
680, 6.694452
670, 6.834065
660, 6.868930
650, 6.863845
640, 6.832874
630, 6.857703
620, 6.816179
610, 6.871138
600, 6.810411
590, 6.783183
580, 6.736309
570, 6.640170
560, 6.641399
550, 6.523970
540, 6.388899
530, 6.242637
520, 6.058008
510, 5.911665
500, 5.738229
490, 5.537226
480, 5.480877
470, 5.425409
460, 5.452554
450, 5.549781
440, 5.505124
430, 5.597393
420, 5.722643
410, 5.927077
400, 6.042134

File: 74-RbCuSbI 150C.Sample.Raw.csv
nm, %R
1200, 13.0583
1190, 12.7562
1180, 12.9255
1170, 12.9319
1160, 12.9387
1150, 12.6482
1140, 12.8485
1130, 13.0462
1120, 13.0695
1110, 13.0929
1100, 13.102
1090, 13.1448
1080, 13.1606
1070, 13.2288
1060, 13.2538
1050, 13.2687
1040, 13.3349
1030, 13.3514
1020, 13.372
1010, 13.4481
1000, 13.4346
990, 13.4667
980, 13.5376
970, 13.6205
960, 13.6387
950, 13.672
940, 13.6859
930, 13.7247
920, 13.8025
910, 13.7974
900, 13.8304
890, 13.9117
880, 13.868
870, 13.9286
860, 13.8547
850, 13.83
840, 13.237
830, 13.3047
820, 13.3645
810, 13.3423
800, 13.2919
790, 13.2644
780, 13.6116
770, 13.5718
760, 13.4219
750, 13.4445
740, 13.6103
730, 13.5081
720, 13.53
710, 13.509
700, 13.4953
690, 13.616
680, 13.567
670, 13.5542
660, 13.6607
650, 13.7176
640, 13.7636
630, 13.9541
620, 14.0083
610, 14.1306
600, 14.1773
590, 14.2074
580, 14.063
570, 13.8194
560, 13.5278
550, 13.2968
540, 13.1649
530, 13.0288
520, 12.8885
510, 12.8265
500, 12.9984
490, 13.1842
480, 13.5564
470, 13.8071
460, 13.6783
450, 13.1348
440, 12.5204
430, 11.8364
420, 11.1675
410, 10.6341
400, 10.2982

File: 75-CsNaSbIBr Batch 3.3.Sample.Raw.csv
nm, %R
1200, 6.794278
1190, 6.476189
1180, 6.644610
1170, 6.661294
1160, 6.663784
1150, 6.309878
1140, 6.500038
1130, 6.677253
1120, 6.685109
1110, 6.685818
1100, 6.684442
1090, 6.697390
1080, 6.682595
1070, 6.730678
1060, 6.733984
1050, 6.747716
1040, 6.750656
1030, 6.748071
1020, 6.698577
1010, 6.760822
1000, 6.746612
990, 6.710014
980, 6.742058
970, 6.783687
960, 6.739433
950, 6.797290
940, 6.750181
930, 6.780151
920, 6.843333
910, 6.806219
900, 6.821148
890, 6.863401
880, 6.841372
870, 6.815997
860, 6.620585
850, 6.544644
840, 4.768944
830, -1.602189
820, 2.990543
810, 4.997437
800, 6.062955
790, 6.130488
780, 5.155932
770, 5.256818
760, 5.318184
750, 5.367437
740, 5.610461
730, 5.626453
720, 5.673735
710, 5.726830
700, 5.840187
690, 6.085162
680, 6.271186
670, 6.174323
660, 5.977609
650, 5.996447
640, 5.973370
630, 6.006232
620, 5.994658
610, 6.023769
600, 6.067344
590, 6.054728
580, 5.998930
570, 6.121320
560, 6.267669
550, 6.154723
540, 6.080336
530, 6.217208
520, 6.404728
510, 6.734729
500, 6.766097
490, 5.878019
480, 5.412094
470, 5.726145
460, 5.795054
450, 5.546450
440, 5.023158
430, 5.204129
420, 5.731232
410, 6.427477
400, 6.905407