Folder: campaign1/UV-Vis data/Reflection (part 2)

File: 10-1FAPbI3-9MAPbBr3.Sample.Raw.csv
nm, %R
1200, 17.9219
1196, 18.0589
1192, 18.1761
1188, 18.31
1184, 18.4376
1180, 18.5545
1176, 18.6656
1172, 18.7981
1168, 18.9066
1164, 19.0143
1160, 19.1448
1156, 19.235
1152, 19.359
1148, 19.4732
1144, 19.561
1140, 19.6735
1136, 19.77
1132, 19.8689
1128, 19.9596
1124, 20.0537
1120, 20.1328
1116, 20.2206
1112, 20.2964
1108, 20.3831
1104, 20.429
1100, 20.5161
1096, 20.5885
1092, 20.648
1088, 20.6997
1084, 20.7546
1080, 20.7713
1076, 20.8253
1072, 20.8714
1068, 20.9045
1064, 20.9375
1060, 20.9451
1056, 20.9568
1052, 20.9681
1048, 20.9696
1044, 20.9548
1040, 20.9409
1036, 20.9149
1032, 20.8891
1028, 20.8517
1024, 20.8172
1020, 20.7541
1016, 20.7205
1012, 20.6549
1008, 20.5822
1004, 20.5127
1000, 20.4315
996, 20.3567
992, 20.2639
988, 20.1603
984, 20.0681
980, 19.9347
976, 19.8214
972, 19.6845
968, 19.5448
964, 19.4145
960, 19.261
956, 19.1063
952, 18.9598
948, 18.8099
944, 18.6504
940, 18.4847
936, 18.3075
932, 18.1363
928, 17.9369
924, 17.7536
920, 17.5695
916, 17.3868
912, 17.2115
908, 17.0366
904, 16.8424
900, 16.6753
896, 16.4902
892, 16.3127
888, 16.1298
884, 15.9746
880, 15.7994
876, 15.6354
872, 15.5027
868, 15.3897
864, 15.2041
860, 15.1258
856, 15.1258
852, 15.1258
848, 15.1258
844, 15.1258
840, 17.6265
836, 18.4897
832, 17.3912
828, 16.4769
824, 16.19
820, 15.903
816, 15.6467
812, 15.5968
808, 15.4176
804, 15.722
800, 15.7762
796, 15.7717
792, 15.762
788, 15.7338
784, 15.7499
780, 15.7485
776, 15.7956
772, 15.7998
768, 15.8556
764, 15.9117
760, 15.9108
756, 15.9293
752, 15.9184
748, 15.9692
744, 15.9901
740, 15.9943
736, 16.0092
732, 16.0417
728, 16.0278
724, 16.0752
720, 16.1163
716, 16.1019
712, 16.1359
708, 16.1375
704, 16.1687
700, 16.1725
696, 16.179
692, 22.3215
688, 22.7524
684, 22.3828
680, 22.2306
676, 22.3207
672, 22.2047
668, 22.1076
664, 21.8754
660, 21.6749
656, 21.4166
652, 21.0797
648, 20.7601
644, 20.3925
640, 19.9232
636, 19.5111
632, 19.0422
628, 18.6567
624, 18.3028
620, 17.9382
616, 17.6575
612, 17.4858
608, 17.4459
604, 17.566
600, 17.9086
596, 18.3927
592, 19.1618
588, 20.1647
584, 21.3808
580, 22.7165
576, 24.1474
572, 25.2393
568, 25.2989
564, 23.6334
560, 20.7547
556, 18.5812
552, 17.6194
548, 16.8838
544, 16.4464
540, 16.2298
536, 16.2091
532, 16.265
528, 16.3421
524, 16.5094
520, 16.7456
516, 17.0606
512, 17.4733
508, 17.7871
504, 17.7339
500, 17.0681
496, 16.0545
492, 14.8803
488, 13.8993
484, 14.9067
480, 15.9566
476, 16.4797
472, 17.1205
468, 17.7204
464, 18.1484
460, 18.1542
456, 17.9828
452, 17.752
448, 16.7983
444, 17.2065
440, 17.5372
436, 17.8112
432, 18.0246
428, 18.1715
424, 18.4523
420, 18.531
416, 18.754
412, 19.0557
408, 19.2372
404, 19.5664
400, 19.5666
396, 19.5539
392, 19.573
388, 19.5872
384, 19.4734
380, 19.4968
376, 19.7374
372, 21.2511
368, 20.3418
364, 19.8401
360, 19.2585
356, 19.0165
352, 18.651
348, 18.6597
344, 18.5919
340, 18.2844
336, 18.3147
332, 18.3147
328, 18.3147
324, 18.3147
320, 18.3147
316, 19.4637
312, 18.6463
308, 18.6463
304, 18.6463
300, 18.6463

File: 11_Sample251.Sample.Raw.csv
nm, %R
1100, 24.3045
1095, 24.2607
1090, 24.199
1085, 24.1326
1080, 24.0496
1075, 23.994
1070, 23.8615
1065, 23.749
1060, 23.6092
1055, 23.466
1050, 23.3203
1045, 23.1918
1040, 23.0399
1035, 22.8854
1030, 22.7192
1025, 22.5722
1020, 22.4282
1015, 22.2443
1010, 22.1345
1005, 22.0019
1000, 21.879
995, 21.7725
990, 21.6782
985, 21.6023
980, 21.5664
975, 21.5459
970, 21.5123
965, 21.5429
960, 21.6049
955, 21.6817
950, 21.8117
945, 21.9459
940, 22.1175
935, 22.3126
930, 22.5528
925, 22.8216
920, 23.1173
915, 23.4398
910, 23.8017
905, 24.1582
900, 24.5768
895, 24.9871
890, 25.4079
885, 25.8437
880, 26.284
875, 26.6767
870, 27.1038
865, 27.4845
860, 27.8525
855, 27.8525
850, 27.8525
845, 27.8525
840, 28.8539
835, 32.54
830, 32.0535
825, 30.8623
820, 29.7223
815, 29.109
810, 28.7613
805, 28.6841
800, 28.9085
795, 28.3568
790, 28.0133
785, 28.053
780, 27.8635
775, 28.0262
770, 27.9793
765, 27.8054
760, 27.6776
755, 27.68
750, 27.698
745, 27.6625
740, 27.6144
735, 27.6936
730, 27.711
725, 27.7598
720, 27.7629
715, 27.8603
710, 28.0251
705, 28.1196
700, 28.3108
695, 28.485
690, 28.7472
685, 28.9968
680, 29.1055
675, 29.1507
670, 29.3121
665, 29.4392
660, 29.6354
655, 29.7635
650, 29.8266
645, 29.9108
640, 30.0271
635, 30.1029
630, 30.1729
625, 30.2671
620, 30.3818
615, 30.5373
610, 30.6846
605, 30.9437
600, 31.2227
595, 31.61
590, 31.9927
585, 32.4105
580, 32.8386
575, 33.1944
570, 33.4199
565, 33.3064
560, 32.2174
555, 29.3191
550, 25.4442
545, 22.2438
540, 20.8405
535, 20.5749
530, 19.3885
525, 18.1175
520, 17.5669
515, 17.4315
510, 17.5053
505, 17.525
500, 17.4028
495, 17.0346
490, 16.7049
485, 16.632
480, 17.0513
475, 17.2666
470, 17.4591
465, 17.664
460, 17.7692
455, 17.7443
450, 17.6656
445, 17.5422
440, 17.7188
435, 17.8844
430, 18.0101
425, 18.132
420, 18.2656
415, 18.4685
410, 18.663
405, 18.8761
400, 19.0468
395, 19.2068
390, 19.437
385, 19.6352
380, 19.8928
375, 19.8572
370, 20.6638
365, 20.6327
360, 19.3545
355, 18.3368
350, 17.622
345, 17.2765
340, 17.2349
335, 17.2349
330, 17.2349
325, 17.2349
320, 17.2349
315, 17.3882
310, 17.2349
305, 17.2349
300, 17.2349

File: 12-F_9_M_1_Cs5Rb5.Sample.Raw.csv
nm, %R
900, 18.9425
895, 18.538
890, 18.09
885, 17.727
880, 17.4004
875, 17.1093
870, 16.9083
865, 16.7409
860, 15.051
855, 12.5832
850, 10.2276
845, 8.874126
840, 12.2959
835, 17.1036
830, 18.6925
825, 19.0208
820, 19.2849
815, 19.4612
810, 19.523
805, 19.6059
800, 19.8066
795, 19.6153
790, 18.9837
785, 17.8589
780, 16.3145
775, 14.6028
770, 13.3027
765, 12.325
760, 11.8618
755, 11.514
750, 11.3934
745, 11.31
740, 11.2632
735, 11.1998
730, 11.0939
725, 11.1282
720, 11.034
715, 10.9251
710, 10.821
705, 10.7528
700, 10.6373
695, 10.6117
690, 10.5072
685, 10.3931
680, 10.4561
675, 10.3691
670, 10.3499
665, 10.3223
660, 10.3531
655, 10.3594
650, 10.4508
645, 10.4637
640, 10.5356
635, 10.568
630, 10.6345
625, 10.7064
620, 10.79
615, 10.8652
610, 10.9371
605, 11.0157
600, 11.072
595, 11.1276
590, 11.2106
585, 11.2573
580, 11.3123
575, 11.3956
570, 11.4906
565, 11.5387
560, 11.6328
555, 11.7343
550, 11.869
545, 11.9428
540, 12.0561
535, 12.1644
530, 12.2719
525, 12.3857
520, 12.4868
515, 12.5721
510, 12.678
505, 12.7281
500, 12.7895
495, 12.8646
490, 12.9424
485, 13.0179
480, 12.9833
475, 12.9244
470, 12.8962
465, 12.8888
460, 12.9144
455, 13.0172
450, 13.191
445, 13.465
440, 13.7396
435, 14.0427
430, 14.3212
425, 14.5804
420, 14.8308
415, 15.0666
410, 15.3406
405, 15.4156
400, 15.5864

File: 13-F_5_M_1_Cs5Rb5.Sample.Raw.csv
nm, %R
900, 23.0845
895, 23.1248
890, 23.105
885, 23.0379
880, 22.8714
875, 22.7246
870, 22.4862
865, 22.184
860, 21.3683
855, 20.1796
850, 18.8204
845, 17.4934
840, 16.4011
835, 15.746
830, 17.7572
825, 18.4148
820, 18.4247
815, 17.911
810, 17.4429
805, 17.2191
800, 16.8337
795, 16.4202
790, 16.0319
785, 15.6814
780, 15.2161
775, 14.6131
770, 13.8295
765, 12.8626
760, 11.7571
755, 10.7478
750, 10.1384
745, 9.762090
740, 9.611913
735, 9.427564
730, 9.408377
725, 9.423290
720, 9.502188
715, 9.413428
710, 9.549757
705, 9.596777
700, 9.665734
695, 9.752534
690, 9.742307
685, 9.779414
680, 9.836826
675, 9.802085
670, 9.800699
665, 9.734487
660, 9.789063
655, 9.748265
650, 9.724998
645, 9.695079
640, 9.661880
635, 9.623545
630, 9.600159
625, 9.584251
620, 9.591881
615, 9.601102
610, 9.644090
605, 9.704164
600, 9.729221
595, 9.766883
590, 9.848516
585, 9.910978
580, 9.981897
575, 10.0783
570, 10.1727
565, 10.2448
560, 10.3649
555, 10.4443
550, 10.5473
545, 10.6353
540, 10.7508
535, 10.8493
530, 10.9587
525, 11.0593
520, 11.1791
515, 11.2879
510, 11.3976
505, 11.4897
500, 11.5803
495, 11.5929
490, 11.608
485, 11.6028
480, 11.6435
475, 11.6455
470, 11.6559
465, 11.6645
460, 11.6587
455, 11.7057
450, 11.7828
445, 11.845
440, 12.086
435, 12.3163
430, 12.5966
425, 12.8474
420, 13.1194
415, 13.3305
410, 13.6238
405, 13.9279
400, 14.2314

File: 14-F_3_M_1_Cs5Rb5.Sample.Raw.csv
nm, %R
900, 24.7387
895, 24.4921
890, 24.1169
885, 23.7022
880, 23.188
875, 22.6848
870, 22.1306
865, 21.4951
860, 20.6764
855, 19.5217
850, 18.173
845, 16.7729
840, 15.4636
835, 14.3874
830, 13.6867
825, 14.977
820, 15.3819
815, 15.4287
810, 15.1083
805, 15.4404
800, 15.0468
795, 15.1331
790, 15.5865
785, 16.0988
780, 16.6291
775, 17.2893
770, 18.0773
765, 18.7771
760, 19.4408
755, 19.992
750, 20.2915
745, 19.9575
740, 18.7274
735, 16.5002
730, 13.9677
725, 12.0463
720, 10.8675
715, 10.21
710, 9.892842
705, 9.808152
700, 9.647011
695, 9.610465
690, 9.533412
685, 9.446638
680, 9.312837
675, 9.132711
670, 9.005134
665, 8.812694
660, 8.704677
655, 8.574039
650, 8.470838
645, 8.367690
640, 8.296592
635, 8.248446
630, 8.211240
625, 8.241282
620, 8.323380
615, 8.370167
610, 8.487671
605, 8.611345
600, 8.685664
595, 8.793378
590, 8.878821
585, 8.974764
580, 9.033764
575, 9.094690
570, 9.173250
565, 9.212623
560, 9.299421
555, 9.314262
550, 9.349786
545, 9.411189
540, 9.503571
535, 9.606761
530, 9.707186
525, 9.853464
520, 9.995384
515, 10.1832
510, 10.3847
505, 10.5376
500, 10.6162
495, 10.5225
490, 10.4623
485, 10.4363
480, 10.6459
475, 10.8154
470, 10.967
465, 11.1216
460, 11.2845
455, 11.3687
450, 11.4879
445, 11.5553
440, 11.8421
435, 12.1014
430, 12.4462
425, 12.687
420, 12.9253
415, 13.0524
410, 13.2337
405, 13.3337
400, 13.3284

File: 15-F_2_M_1_Cs5Rb5.Sample.Raw.csv
nm, %R
900, 20.6999
895, 20.7352
890, 20.7642
885, 20.7843
880, 20.8126
875, 20.8472
870, 20.9018
865, 20.9399
860, 19.3721
855, 17.0627
850, 14.8417
845, 13.5393
840, 16.4088
835, 21.0212
830, 22.0399
825, 22.2584
820, 22.0295
815, 21.9666
810, 21.8483
805, 21.685
800, 21.9345
795, 22.0061
790, 22.1263
785, 22.1454
780, 22.1749
775, 22.2767
770, 22.4263
765, 22.4345
760, 22.4158
755, 22.3903
750, 22.4269
745, 22.3874
740, 22.2392
735, 21.7967
730, 21.1621
725, 20.1816
720, 18.6338
715, 16.6355
710, 14.5595
705, 12.8107
700, 11.6846
695, 11.1584
690, 10.8542
685, 10.6622
680, 10.6901
675, 10.6438
670, 10.6207
665, 10.5889
660, 10.602
655, 10.6291
650, 10.6549
645, 10.6484
640, 10.6641
635, 10.6672
630, 10.663
625, 10.6686
620, 10.708
615, 10.7445
610, 10.7738
605, 10.8088
600, 10.8446
595, 10.854
590, 10.9219
585, 10.9587
580, 11.0048
575, 11.0887
570, 11.1513
565, 11.2099
560, 11.2729
555, 11.3866
550, 11.5057
545, 11.5837
540, 11.7058
535, 11.8154
530, 11.9385
525, 12.0805
520, 12.2234
515, 12.3934
510, 12.5472
505, 12.6322
500, 12.713
495, 12.7364
490, 12.8706
485, 12.9878
480, 13.0134
475, 13.0393
470, 13.0857
465, 13.1268
460, 13.1986
455, 13.2711
450, 13.3846
445, 13.5185
440, 13.6646
435, 13.7536
430, 13.9513
425, 14.1173
420, 14.2987
415, 14.5179
410, 14.7813
405, 14.9294
400, 15.0883

File: 16-F_1_M_1_Cs5Rb5.Sample.Raw.csv
nm, %R
900, 19.2033
895, 19.2939
890, 19.3568
885, 19.401
880, 19.434
875, 19.5058
870, 19.5543
865, 19.6247
860, 19.3533
855, 18.9443
850, 18.4598
845, 17.9617
840, 17.5122
835, 17.1733
830, 17.007
825, 18.7937
820, 19.5312
815, 19.7332
810, 19.8065
805, 20.3108
800, 20.0051
795, 19.9147
790, 19.9762
785, 20.1138
780, 20.0979
775, 20.0707
770, 20.19
765, 20.1874
760, 20.1641
755, 20.1986
750, 20.1956
745, 20.2729
740, 20.3545
735, 20.4202
730, 20.4049
725, 20.46
720, 20.408
715, 20.3884
710, 20.465
705, 20.406
700, 20.3584
695, 20.2045
690, 20.0043
685, 19.4893
680, 18.7602
675, 17.7995
670, 16.6658
665, 15.533
660, 14.4525
655, 13.4503
650, 12.611
645, 11.7809
640, 11.0416
635, 10.3842
630, 9.917327
625, 9.602229
620, 9.491968
615, 9.437883
610, 9.428654
605, 9.446035
600, 9.462910
595, 9.493491
590, 9.533586
585, 9.572454
580, 9.592807
575, 9.648942
570, 9.728919
565, 9.785293
560, 9.867384
555, 9.927358
550, 10.0001
545, 10.0762
540, 10.1945
535, 10.3119
530, 10.4244
525, 10.5713
520, 10.7332
515, 10.9128
510, 11.0776
505, 11.1707
500, 11.2111
495, 11.0823
490, 10.967
485, 10.9268
480, 11.1043
475, 11.2544
470, 11.3904
465, 11.5361
460, 11.6707
455, 11.7524
450, 11.8256
445, 11.7731
440, 11.9426
435, 11.9906
430, 12.0899
425, 12.156
420, 12.2739
415, 12.4219
410, 12.6042
405, 12.7957
400, 12.9325

File: 17-F_1_M_2_Cs5Rb5.Sample.Raw.csv
nm, %R
900, 20.8577
895, 20.9174
890, 20.9522
885, 20.9245
880, 20.8877
875, 20.8535
870, 20.7902
865, 20.713
860, 20.2823
855, 19.6538
850, 18.9132
845, 18.1462
840, 17.4385
835, 16.8758
830, 16.5437
825, 18.0785
820, 18.6516
815, 18.7535
810, 18.6369
805, 18.848
800, 18.5546
795, 18.336
790, 18.3295
785, 18.2024
780, 18.2222
775, 18.4436
770, 18.586
765, 18.6031
760, 18.8574
755, 19.1411
750, 19.5077
745, 19.9772
740, 20.5037
735, 21.0458
730, 21.5888
725, 22.1081
720, 22.6908
715, 23.1308
710, 23.6522
705, 24.0913
700, 24.4266
695, 24.6914
690, 24.8097
685, 24.9063
680, 24.7042
675, 24.3983
670, 23.9644
665, 23.2896
660, 22.5744
655, 21.6856
650, 20.7132
645, 19.6518
640, 18.5652
635, 17.5439
630, 16.549
625, 15.6276
620, 14.8002
615, 13.9122
610, 13.0048
605, 12.1616
600, 11.4947
595, 11.0442
590, 10.8011
585, 10.693
580, 10.6721
575, 10.7282
570, 10.7807
565, 10.8348
560, 10.9126
555, 10.9146
550, 10.9079
545, 10.9095
540, 10.9381
535, 10.9466
530, 10.9813
525, 11.019
520, 11.0918
515, 11.1895
510, 11.3148
505, 11.4427
500, 11.5489
495, 11.563
490, 11.5255
485, 11.5099
480, 11.7094
475, 11.8432
470, 11.9873
465, 12.1192
460, 12.2241
455, 12.3086
450, 12.3564
445, 12.3055
440, 12.4227
435, 12.518
430, 12.6722
425, 12.7921
420, 12.9614
415, 13.1333
410, 13.4167
405, 13.6067
400, 13.6874

File: 18-F_1_M_3_Cs5Rb5.Sample.Raw.csv
nm, %R
900, 21.3126
895, 21.3146
890, 21.2664
885, 21.1958
880, 21.0961
875, 21.0095
870, 20.9184
865, 20.8138
860, 19.3816
855, 17.2351
850, 14.9229
845, 12.9933
840, 11.995
835, 17.3139
830, 19.0269
825, 20.0086
820, 19.8562
815, 19.8581
810, 19.5657
805, 19.5891
800, 19.5289
795, 19.3457
790, 19.4194
785, 19.5264
780, 19.5805
775, 19.5776
770, 19.7594
765, 19.7858
760, 20.1074
755, 20.321
750, 20.6385
745, 21.0537
740, 21.4492
735, 21.9484
730, 22.4069
725, 22.9741
720, 23.4227
715, 23.8406
710, 24.339
705, 24.8494
700, 25.2438
695, 25.6527
690, 25.8923
685, 26.0369
680, 26.2162
675, 26.1398
670, 25.95
665, 25.6268
660, 25.2731
655, 24.757
650, 24.1248
645, 23.4286
640, 22.6238
635, 21.7964
630, 20.9632
625, 20.1358
620, 19.2903
615, 18.3735
610, 17.2893
605, 15.8965
600, 14.4567
595, 13.286
590, 12.5863
585, 12.2399
580, 12.0556
575, 12.0159
570, 12.0208
565, 12.023
560, 12.0789
555, 12.1043
550, 12.11
545, 12.0836
540, 12.0742
535, 12.0508
530, 12.0016
525, 11.9666
520, 11.9477
515, 11.9413
510, 11.9507
505, 11.9691
500, 12.0325
495, 12.0591
490, 12.1053
485, 12.1516
480, 12.2133
475, 12.2471
470, 12.2804
465, 12.3158
460, 12.361
455, 12.3742
450, 12.4127
445, 12.4304
440, 12.465
435, 12.5381
430, 12.6358
425, 12.7049
420, 12.8338
415, 13.0315
410, 13.2598
405, 13.4057
400, 13.506

File: 19-F_1_M_5_Cs5Rb5.Sample.Raw.csv
nm, %R
900, 21.0512
895, 21.084
890, 21.0559
885, 21.0647
880, 21.0231
875, 21.0303
870, 21.0499
865, 21.0205
860, 19.7523
855, 17.8386
850, 15.785
845, 14.0971
840, 13.2803
835, 18.8935
830, 20.9286
825, 21.6994
820, 21.7547
815, 21.8772
810, 21.7461
805, 21.7668
800, 21.8595
795, 21.7803
790, 21.8466
785, 21.9221
780, 22.0503
775, 21.9095
770, 22.0633
765, 22.0732
760, 22.1335
755, 22.0763
750, 22.1498
745, 22.1689
740, 22.2917
735, 22.3125
730, 22.3569
725, 22.4665
720, 22.4825
715, 22.4611
710, 22.5537
705, 22.6224
700, 22.6958
695, 22.7259
690, 22.788
685, 22.8473
680, 22.9775
675, 23.0261
670, 23.0808
665, 23.0933
660, 23.2381
655, 23.2786
650, 23.3958
645, 23.4463
640, 23.5446
635, 23.5837
630, 23.6808
625, 23.7228
620, 23.7546
615, 23.6926
610, 23.4988
605, 23.0543
600, 22.2063
595, 20.8098
590, 18.9095
585, 16.5532
580, 14.1904
575, 12.3901
570, 11.2997
565, 10.7598
560, 10.5157
555, 10.3718
550, 10.3011
545, 10.2379
540, 10.2319
535, 10.2095
530, 10.2181
525, 10.2058
520, 10.2089
515, 10.207
510, 10.2223
505, 10.2358
500, 10.2729
495, 10.3039
490, 10.3475
485, 10.3874
480, 10.4365
475, 10.4774
470, 10.4953
465, 10.5602
460, 10.5847
455, 10.6795
450, 10.7532
445, 10.8098
440, 10.9295
435, 11.0412
430, 11.1737
425, 11.2766
420, 11.4913
415, 11.691
410, 12.0208
405, 12.2258
400, 12.418

File: 20-F_1_M_9_Cs5Rb5.Sample.Raw.csv
nm, %R
900, 22.83
895, 22.9371
890, 22.9686
885, 23.0057
880, 23.0317
875, 23.0371
870, 23.0571
865, 23.0505
860, 21.7595
855, 19.8172
850, 17.7218
845, 15.9717
840, 15.0651
835, 19.8631
830, 21.7956
825, 22.6386
820, 22.6059
815, 22.4997
810, 22.2702
805, 22.0445
800, 21.7855
795, 21.5641
790, 21.4558
785, 21.2624
780, 21.0152
775, 20.8297
770, 20.6874
765, 20.4131
760, 20.2791
755, 20.1215
750, 19.9795
745, 20.0214
740, 20.0528
735, 20.053
730, 20.1405
725, 20.268
720, 20.4198
715, 20.5858
710, 20.8363
705, 21.1123
700, 21.5299
695, 21.8886
690, 22.3177
685, 22.6978
680, 23.1437
675, 23.4751
670, 23.8621
665, 24.1578
660, 24.5006
655, 24.7478
650, 24.9379
645, 25.045
640, 25.0773
635, 25.0252
630, 24.9308
625, 24.6982
620, 24.5062
615, 24.3163
610, 24.0562
605, 23.874
600, 23.6791
595, 23.5918
590, 23.4593
585, 23.0415
580, 21.9483
575, 19.9362
570, 16.9039
565, 13.6861
560, 11.7547
555, 10.9808
550, 10.6801
545, 10.4792
540, 10.4021
535, 10.3638
530, 10.3209
525, 10.2736
520, 10.2382
515, 10.2012
510, 10.1594
505, 10.1101
500, 10.1205
495, 10.0946
490, 10.0975
485, 10.1042
480, 10.132
475, 10.1416
470, 10.1688
465, 10.1972
460, 10.2617
455, 10.2811
450, 10.3643
445, 10.4261
440, 10.5182
435, 10.5725
430, 10.6832
425, 10.7975
420, 10.997
415, 11.2116
410, 11.5345
405, 11.7835
400, 12.0067

File: 21-FAPbBr Batch 2.3.Sample.Raw.csv
nm, %R
1200, 14.9032
1190, 14.4643
1180, 14.4657
1170, 14.3065
1160, 14.1475
1150, 13.692
1140, 13.6769
1130, 13.6616
1120, 13.4995
1110, 13.3569
1100, 13.1868
1090, 13.0391
1080, 12.908
1070, 12.8137
1060, 12.7142
1050, 12.641
1040, 12.5823
1030, 12.5687
1020, 12.5295
1010, 12.5978
1000, 12.5569
990, 12.6028
980, 12.6945
970, 12.8091
960, 12.884
950, 13.0681
940, 13.2389
930, 13.4033
920, 13.5705
910, 13.7573
900, 13.889
890, 14.1106
880, 14.2316
870, 14.3827
860, 14.4651
850, 14.5369
840, 13.0745
830, 8.002879
820, 11.9061
810, 13.1578
800, 13.9396
790, 14.0622
780, 13.601
770, 13.6878
760, 13.7356
750, 13.8104
740, 13.8825
730, 13.9437
720, 13.9539
710, 14.0536
700, 14.0795
690, 14.1269
680, 14.3077
670, 14.1469
660, 13.9721
650, 13.909
640, 13.9637
630, 14.0921
620, 14.1584
610, 14.4233
600, 14.8399
590, 15.2982
580, 15.7266
570, 16.0586
560, 15.9345
550, 14.5224
540, 13.2317
530, 11.9767
520, 11.7128
510, 11.9456
500, 11.9607
490, 11.4183
480, 11.3267
470, 11.9366
460, 12.3789
450, 12.3864
440, 12.2372
430, 12.6677
420, 13.1842
410, 13.8732
400, 14.5086

File: 22-Sample252.Sample.Raw.csv
nm, %R
1100, 21.3949
1095, 21.4384
1090, 21.4689
1085, 21.5036
1080, 21.5339
1075, 21.6014
1070, 21.6298
1065, 21.6999
1060, 21.7326
1055, 21.771
1050, 21.8139
1045, 21.8935
1040, 21.9612
1035, 22.0166
1030, 22.053
1025, 22.1157
1020, 22.1726
1015, 22.1767
1010, 22.2307
1005, 22.2496
1000, 22.2427
995, 22.2213
990, 22.1794
985, 22.1111
980, 22.0124
975, 21.8784
970, 21.6828
965, 21.4859
960, 21.2491
955, 20.9791
950, 20.719
945, 20.4085
940, 20.1123
935, 19.7948
930, 19.4903
925, 19.1754
920, 18.8882
915, 18.6224
910, 18.3769
905, 18.1452
900, 17.9595
895, 17.7599
890, 17.5647
885, 17.4133
880, 17.2736
875, 17.1773
870, 17.0134
865, 16.8989
860, 16.8133
855, 16.8133
850, 16.8133
845, 16.8133
840, 17.9167
835, 22.0568
830, 21.6009
825, 20.3755
820, 19.1528
815, 18.5174
810, 18.1195
805, 17.6711
800, 17.4427
795, 18.1119
790, 18.2028
785, 18.1606
780, 18.0831
775, 16.9378
770, 12.8395
765, 12.8262
760, 12.7232
755, 12.8621
750, 12.96
745, 13.1836
740, 13.1659
735, 13.0761
730, 13.1032
725, 13.1906
720, 13.1599
715, 13.2413
710, 13.3464
705, 13.4518
700, 13.5032
695, 13.545
690, 13.6585
685, 13.8567
680, 13.7539
675, 13.43
670, 13.405
665, 13.4224
660, 13.4035
655, 13.369
650, 13.3462
645, 13.295
640, 13.2252
635, 13.1196
630, 12.9903
625, 12.8486
620, 12.6453
615, 12.4256
610, 12.2074
605, 11.9599
600, 11.7198
595, 11.4569
590, 11.1855
585, 10.9248
580, 10.6191
575, 10.4038
570, 10.1725
565, 10.0111
560, 9.840069
555, 9.265388
550, 8.834850
545, 8.594375
540, 8.350286
535, 8.145114
530, 7.961885
525, 7.836205
520, 7.796816
515, 7.851564
510, 7.955070
505, 7.919870
500, 7.466824
495, 6.523862
490, 5.525158
485, 5.140103
480, 5.808032
475, 6.079665
470, 6.274449
465, 6.441376
460, 6.361245
455, 5.992644
450, 5.487066
445, 4.850556
440, 4.900369
435, 4.937615
430, 4.881615
425, 4.880779
420, 4.877511
415, 4.850232
410, 4.910768
405, 5.078672
400, 5.329239
395, 5.487872
390, 5.736171
385, 6.136533
380, 6.691454
375, 6.693619
370, 7.623810
365, 7.569627
360, 6.100391
355, 4.948767
350, 4.072489
345, 3.659881
340, 3.651061
335, 3.651061
330, 3.651061
325, 3.651061
320, 3.651061
315, 3.683546
310, 3.651061
305, 3.651061
300, 3.651061

File: 23-Ca 1%.Sample.Raw.csv
nm, %R
1200, 18.332
1195, 18.3869
1190, 18.4564
1185, 25.5682
1180, 25.6637
1175, 25.7433
1170, 25.9925
1165, 26.0582
1160, 26.1432
1155, 26.1962
1150, 26.2736
1145, 26.3259
1140, 26.394
1135, 26.4549
1130, 26.5088
1125, 26.5592
1120, 26.6209
1115, 26.6613
1110, 26.7139
1105, 26.779
1100, 26.8311
1095, 26.8812
1090, 26.9096
1085, 26.9576
1080, 27.005
1075, 27.0644
1070, 27.1199
1065, 27.1841
1060, 27.2539
1055, 27.3225
1050, 27.3897
1045, 27.485
1040, 27.5898
1035, 27.7013
1030, 27.8045
1025, 27.9278
1020, 28.0494
1015, 28.1618
1010, 28.2793
1005, 28.3803
1000, 28.5078
995, 28.598
990, 28.6678
985, 28.7133
980, 28.7493
975, 28.7266
970, 28.6625
965, 28.5599
960, 28.4212
955, 28.2301
950, 28.0066
945, 27.7626
940, 27.5081
935, 27.2415
930, 26.9803
925, 26.7106
920, 26.4499
915, 26.1887
910, 25.9504
905, 25.7311
900, 25.5508
895, 25.3768
890, 25.2569
885, 25.1313
880, 25.0219
875, 24.9544
870, 24.8885
865, 24.8288
860, 24.7648
855, 24.6455
850, 24.4789
845, 24.2794
840, 24.0612
835, 23.8388
830, 23.6265
825, 23.4387
820, 23.2897
815, 23.1938
810, 23.604
805, 23.546
800, 23.3829
795, 23.0568
790, 22.7147
785, 22.6387
780, 22.4883
775, 22.4909
770, 22.4387
765, 22.1377
760, 22.0367
755, 22.0732
750, 22.0066
745, 21.8454
740, 21.7779
735, 21.6697
730, 21.709
725, 21.6053
720, 21.5533
715, 21.5681
710, 21.5218
705, 21.5237
700, 21.5384
695, 21.5386
690, 21.5377
685, 21.6579
680, 21.6519
675, 21.6802
670, 21.7298
665, 21.7807
660, 21.9128
655, 21.9239
650, 22.0368
645, 22.1048
640, 22.2025
635, 22.314
630, 22.4087
625, 22.5327
620, 22.6097
615, 22.6619
610, 22.7932
605, 22.898
600, 23.0144
595, 23.0892
590, 23.1751
585, 23.271
580, 23.3752
575, 23.4604
570, 23.5294
565, 23.5687
560, 23.5988
555, 23.6151
550, 23.5628
545, 23.4432
540, 23.2825
535, 23.1885
530, 23.069
525, 22.9591
520, 22.8562
515, 22.7543
510, 22.6737
505, 22.627
500, 22.525
495, 22.3266
490, 22.1072
485, 21.9316
480, 21.9025
475, 21.826
470, 21.6779
465, 21.4272
460, 21.1436
455, 20.8188
450, 20.4993
445, 20.1634
440, 19.8699
435, 19.6423
430, 19.3762
425, 19.0435
420, 18.7634
415, 18.4627
410, 18.1861
405, 17.9042
400, 17.6062
395, 17.3146
390, 16.9962
385, 16.6358
380, 16.2983
375, 15.8148
370, 15.0624
365, 14.613
360, 14.4599
355, 14.0602
350, 14.0485
345, 14.0105
340, 13.9435
335, 13.8948
330, 13.8948
325, 13.8948
320, 13.8948
315, 13.8948
310, 13.8948
305, 13.8948
300, 13.8948

File: 24-Ca 5%.Sample.Raw.csv
nm, %R
1200, 15.2504
1195, 15.3537
1190, 15.4643
1185, 21.5043
1180, 21.6694
1175, 21.8176
1170, 22.1096
1165, 22.244
1160, 22.3989
1155, 22.5277
1150, 22.6748
1145, 22.8041
1140, 22.9498
1135, 23.0843
1130, 23.2126
1125, 23.3376
1120, 23.4732
1115, 23.5836
1110, 23.705
1105, 23.8348
1100, 23.9564
1095, 24.0641
1090, 24.1648
1085, 24.2694
1080, 24.3685
1075, 24.4724
1070, 24.5821
1065, 24.6849
1060, 24.7888
1055, 24.8849
1050, 24.9735
1045, 25.0798
1040, 25.1854
1035, 25.2895
1030, 25.3868
1025, 25.4923
1020, 25.6062
1015, 25.6906
1010, 25.7812
1005, 25.8531
1000, 25.949
995, 26.0367
990, 26.1075
985, 26.1605
980, 26.2103
975, 26.2387
970, 26.2392
965, 26.2237
960, 26.1618
955, 26.0701
950, 25.9441
945, 25.7862
940, 25.6027
935, 25.3889
930, 25.1403
925, 24.8679
920, 24.5719
915, 24.2495
910, 23.9191
905, 23.5959
900, 23.2504
895, 22.9288
890, 22.6209
885, 22.3186
880, 22.0364
875, 21.775
870, 21.5053
865, 21.2939
860, 21.0136
855, 20.8361
850, 20.5989
845, 20.3195
840, 20.0155
835, 19.7045
830, 19.4041
825, 19.1317
820, 18.9051
815, 18.7416
810, 18.7461
805, 18.9402
800, 18.8292
795, 18.4027
790, 18.0587
785, 17.986
780, 17.9422
775, 17.8592
770, 17.7618
765, 17.6387
760, 17.6473
755, 17.6329
750, 17.5507
745, 17.4599
740, 17.4735
735, 17.4389
730, 17.4666
725, 17.4926
720, 17.4316
715, 17.5148
710, 17.5305
705, 17.5696
700, 17.5752
695, 17.5226
690, 17.5511
685, 17.6651
680, 17.6333
675, 17.6082
670, 17.6449
665, 17.6921
660, 17.74
655, 17.755
650, 17.8005
645, 17.8375
640, 17.8832
635, 17.9331
630, 17.9727
625, 18.0567
620, 18.1041
615, 18.1745
610, 18.2219
605, 18.3025
600, 18.3644
595, 18.4293
590, 18.5029
585, 18.5802
580, 18.6638
575, 18.7506
570, 18.7717
565, 18.8175
560, 18.8527
555, 18.8968
550, 18.8757
545, 18.7787
540, 18.6625
535, 18.6124
530, 18.5524
525, 18.4806
520, 18.4063
515, 18.3638
510, 18.3479
505, 18.3244
500, 18.2454
495, 18.1115
490, 17.9248
485, 17.7546
480, 17.7173
475, 17.7388
470, 17.6586
465, 17.5178
460, 17.2999
455, 17.0663
450, 16.8229
445, 16.5408
440, 16.2916
435, 16.1412
430, 15.955
425, 15.7026
420, 15.4994
415, 15.2575
410, 15.0344
405, 14.8806
400, 14.68
395, 14.4447
390, 14.2238
385, 13.9828
380, 13.8158
375, 13.4702
370, 12.7364
365, 12.2659
360, 12.3335
355, 10.6391
350, 10.6303
345, 10.6015
340, 10.5508
335, 10.514
330, 10.514
325, 10.514
320, 10.514
315, 10.514
310, 10.514
305, 10.514
300, 10.514