Folder: campaign1/UV-Vis data/Reflection (part 4)

File: 37-Rb3Bi2I9.Sample.Raw.csv
nm, %R
900, 17.9646
895, 18.1197
890, 18.2495
885, 18.3863
880, 18.5527
875, 18.6468
870, 18.8494
865, 18.9627
860, 19.0736
855, 19.1797
850, 16.5424
845, 17.6299
840, 18.7053
835, 19.2074
830, 19.4201
825, 19.6569
820, 19.891
815, 19.8359
810, 19.7789
805, 19.6911
800, 19.6951
795, 19.6292
790, 19.5933
785, 21.8508
780, 21.4812
775, 21.4864
770, 21.2019
765, 21.3117
760, 21.2006
755, 21.0002
750, 20.8745
745, 20.8618
740, 20.7281
735, 20.6329
730, 20.5415
725, 20.3955
720, 20.3297
715, 20.1776
710, 20.2375
705, 20.1316
700, 20.0719
695, 19.974
690, 19.7838
685, 19.6687
680, 19.9519
675, 20.0542
670, 20.0053
665, 20.0969
660, 20.0749
655, 20.0854
650, 20.1208
645, 20.1561
640, 20.1818
635, 20.2715
630, 20.2548
625, 20.3158
620, 20.3467
615, 20.4944
610, 20.5637
605, 20.645
600, 20.7467
595, 20.7964
590, 20.852
585, 20.9454
580, 20.9549
575, 20.9669
570, 20.8804
565, 20.7454
560, 20.5032
555, 20.6834
550, 20.7545
545, 20.5887
540, 20.4192
535, 20.2828
530, 20.1021
525, 19.9174
520, 19.6341
515, 19.239
510, 18.5852
505, 17.9351
500, 17.3695
495, 17.2111
490, 16.9339
485, 16.5114
480, 15.0654
475, 14.845
470, 15.127
465, 15.5051
460, 15.9642
455, 16.6611
450, 17.3402
445, 18.3059
440, 18.1888
435, 18.1462
430, 18.0129
425, 17.8684
420, 17.6668
415, 17.3452
410, 17.043
405, 16.6746
400, 16.3313

File: 38-Rb3Sb2I9.Sample.Raw.csv
nm, %R
900, 14.9083
895, 15.068
890, 15.2218
885, 15.3913
880, 15.5768
875, 15.7446
870, 15.9735
865, 16.1658
860, 14.8028
855, 12.745
850, 10.5045
845, 8.593541
840, 7.524208
835, 11.3878
830, 14.7159
825, 16.0655
820, 17.483
815, 17.9958
810, 18.4389
805, 18.6154
800, 18.6143
795, 18.7005
790, 19.092
785, 21.4689
780, 21.4659
775, 21.6928
770, 21.9045
765, 22.1328
760, 22.3995
755, 22.3218
750, 22.5793
745, 22.7552
740, 22.9861
735, 23.1292
730, 23.3766
725, 23.5374
720, 23.7606
715, 23.8887
710, 24.2408
705, 24.3674
700, 24.6663
695, 24.7748
690, 24.867
685, 25.0671
680, 25.4899
675, 25.8185
670, 25.9798
665, 26.2594
660, 26.4032
655, 26.5912
650, 26.716
645, 26.8817
640, 27.0411
635, 27.1569
630, 27.2603
625, 27.336
620, 27.3601
615, 27.461
610, 27.4477
605, 27.4165
600, 27.2549
595, 26.9265
590, 26.3725
585, 25.555
580, 24.3623
575, 22.8999
570, 21.2218
565, 19.5276
560, 17.9824
555, 17.095
550, 16.3749
545, 15.7802
540, 15.3172
535, 14.9664
530, 14.6645
525, 14.363
520, 14.0547
515, 13.7557
510, 13.3956
505, 13.2556
500, 13.3764
495, 14.1477
490, 14.9862
485, 15.6349
480, 14.9621
475, 14.6293
470, 14.2558
465, 13.8023
460, 13.4314
455, 13.2945
450, 13.2166
445, 13.4337
440, 12.7881
435, 12.236
430, 11.677
425, 11.1588
420, 10.673
415, 10.1389
410, 9.691370
405, 9.247262
400, 8.849454

File: 39-Cs3Bi2Br9_DMSO.Sample.Raw.csv
nm, %R
900, 18.8399
895, 18.9046
890, 18.9791
885, 19.033
880, 19.0974
875, 19.1652
870, 19.2509
865, 19.311
860, 19.4775
855, 19.7212
850, 17.5945
845, 18.4704
840, 19.4407
835, 22.1723
830, 21.9473
825, 21.8733
820, 21.0034
815, 20.7453
810, 20.4127
805, 20.0715
800, 20.5706
795, 20.6423
790, 20.775
785, 20.7728
780, 20.7467
775, 20.8433
770, 20.8984
765, 20.8616
760, 20.9254
755, 21.0398
750, 20.9906
745, 21.0877
740, 21.1661
735, 21.1635
730, 21.2223
725, 21.2577
720, 21.3486
715, 21.3502
710, 21.4127
705, 21.4105
700, 21.452
695, 21.4977
690, 21.5239
685, 21.5191
680, 21.5633
675, 21.7006
670, 21.7337
665, 21.7325
660, 21.7805
655, 21.7966
650, 21.813
645, 21.8593
640, 21.8796
635, 21.9078
630, 21.9019
625, 21.911
620, 21.9246
615, 21.9366
610, 21.8992
605, 21.9263
600, 21.9173
595, 21.8872
590, 21.8694
585, 21.8304
580, 21.7904
575, 21.7603
570, 21.6933
565, 21.6309
560, 21.5394
555, 21.4717
550, 21.4163
545, 21.3008
540, 21.1912
535, 21.0383
530, 20.865
525, 20.687
520, 20.4762
515, 20.2005
510, 19.8777
505, 19.5355
500, 19.1849
495, 18.9058
490, 18.577
485, 18.1416
480, 17.3872
475, 16.4006
470, 15.0909
465, 13.1209
460, 10.0149
455, 6.257444
450, 4.900992
445, 7.170592
440, 10.0213
435, 11.4397
430, 11.0685
425, 9.897004
420, 9.223827
415, 9.266970
410, 9.513628
405, 9.468626
400, 9.063285
395, 8.455730
390, 7.717650
385, 7.005112
380, 6.244063
375, 5.524639
370, 5.431121
365, 5.786273
360, 5.021478
355, 4.810654
350, 5.341929

File: 40-Cs3Sb2Br9_DMSO.Sample.Raw.csv
nm, %R
900, 12.5293
895, 12.5925
890, 12.6662
885, 12.6678
880, 12.7394
875, 12.7872
870, 12.8556
865, 12.8968
860, 12.424
855, 11.7072
850, 10.8867
845, 10.103
840, 9.496531
835, 9.207667
830, 11.8978
825, 13.4344
820, 13.5273
815, 13.7526
810, 13.693
805, 13.6283
800, 13.8467
795, 13.8697
790, 13.927
785, 14.0016
780, 14.0146
775, 13.9829
770, 14.2109
765, 14.1144
760, 14.2597
755, 14.3532
750, 14.3604
745, 14.4634
740, 14.5421
735, 14.5336
730, 14.5967
725, 14.6697
720, 14.7829
715, 14.7729
710, 14.883
705, 14.9196
700, 14.9629
695, 15.0634
690, 15.1182
685, 15.1909
680, 15.2953
675, 15.3523
670, 15.4176
665, 15.4959
660, 15.5727
655, 15.6904
650, 15.7832
645, 15.8378
640, 15.9505
635, 16.0481
630, 16.1331
625, 16.2477
620, 16.3428
615, 16.4608
610, 16.5337
605, 16.6459
600, 16.801
595, 16.869
590, 17.0363
585, 17.1273
580, 17.2699
575, 17.3861
570, 17.5377
565, 17.6483
560, 17.8079
555, 17.9293
550, 18.0793
545, 18.2249
540, 18.3627
535, 18.5225
530, 18.6678
525, 18.8251
520, 18.9889
515, 19.1149
510, 19.295
505, 19.4551
500, 19.6049
495, 19.7161
490, 19.6625
485, 19.4555
480, 18.6963
475, 17.1172
470, 14.9176
465, 12.7843
460, 11.4344
455, 10.8125
450, 10.5835
445, 10.4122
440, 10.3668
435, 10.3761
430, 10.4513
425, 10.593
420, 10.8837
415, 11.103
410, 11.4143
405, 11.7196
400, 12.0765
395, 12.3248
390, 12.5918
385, 12.8635
380, 12.964
375, 13.0203
370, 12.9027
365, 12.6773
360, 12.6488
355, 12.3431
350, 13.1503

File: 41-Rb3Bi2Br9_DMSO.Sample.Raw.csv
nm, %R
900, 11.8973
895, 11.8762
890, 11.9056
885, 11.8746
880, 11.856
875, 11.8405
870, 11.8497
865, 11.8094
860, 11.6597
855, 11.4467
850, 11.1903
845, 10.91
840, 10.6257
835, 10.357
830, 10.1237
825, 9.945460
820, 9.842015
815, 10.7388
810, 10.9486
805, 11.5286
800, 11.1794
795, 10.8928
790, 11.1726
785, 11.2307
780, 11.1684
775, 11.1335
770, 11.1605
765, 11.1969
760, 11.1197
755, 11.1426
750, 11.0828
745, 11.2221
740, 11.1891
735, 11.166
730, 11.1225
725, 11.1968
720, 11.1417
715, 11.1324
710, 11.137
705, 11.1471
700, 11.1411
695, 11.1416
690, 11.1603
685, 11.2217
680, 11.0914
675, 11.0667
670, 11.1191
665, 11.0934
660, 11.0835
655, 11.0653
650, 11.1427
645, 11.1266
640, 11.1211
635, 11.1444
630, 11.1834
625, 11.1822
620, 11.2041
615, 11.2353
610, 11.2492
605, 11.2848
600, 11.3138
595, 11.3451
590, 11.3863
585, 11.4089
580, 11.4597
575, 11.5165
570, 11.5832
565, 11.658
560, 11.7425
555, 11.7848
550, 11.8154
545, 11.8913
540, 11.9794
535, 12.0778
530, 12.202
525, 12.3378
520, 12.493
515, 12.6645
510, 12.8915
505, 13.1343
500, 13.3021
495, 13.3419
490, 13.3166
485, 13.3462
480, 13.7749
475, 14.2138
470, 14.6412
465, 15.1061
460, 15.5124
455, 15.5714
450, 14.7607
445, 12.7404
440, 10.9738
435, 10.07
430, 9.860696
425, 9.795183
420, 9.461805
415, 8.931102
410, 8.511470
405, 8.245471
400, 8.060555
395, 7.995335
390, 8.130379
385, 8.282246
380, 8.331594
375, 8.907047
370, 8.572628
365, 8.482225
360, 10.1054
355, 11.1705
350, 11.083

File: 42-Rb3Sb2Br9_DMSO.Sample.Raw.csv
nm, %R
900, 8.368977
895, 8.366662
890, 8.380970
885, 8.361492
880, 8.402698
875, 8.381688
870, 8.379121
865, 8.395490
860, 7.845319
855, 7.017676
850, 6.069405
845, 5.157354
840, 4.438367
835, 4.069291
830, 6.693425
825, 8.366904
820, 8.489209
815, 8.648903
810, 8.504595
805, 8.568457
800, 8.629403
795, 8.592152
790, 8.776027
785, 8.598742
780, 8.743144
775, 8.667734
770, 8.697943
765, 8.673252
760, 8.717268
755, 8.843926
750, 8.687155
745, 8.761813
740, 8.789867
735, 8.774790
730, 8.828524
725, 8.818404
720, 8.808190
715, 8.897277
710, 8.909286
705, 8.896872
700, 8.905416
695, 8.945519
690, 8.968361
685, 8.985349
680, 8.971096
675, 8.978943
670, 9.045257
665, 9.070769
660, 9.086484
655, 9.110234
650, 9.145941
645, 9.174336
640, 9.203723
635, 9.238720
630, 9.265819
625, 9.306500
620, 9.331700
615, 9.366667
610, 9.384611
605, 9.434290
600, 9.472378
595, 9.498297
590, 9.536802
585, 9.590877
580, 9.634682
575, 9.692936
570, 9.739307
565, 9.760715
560, 9.815465
555, 9.858475
550, 9.938812
545, 9.968527
540, 10.0318
535, 10.068
530, 10.1414
525, 10.1982
520, 10.2603
515, 10.3287
510, 10.3939
505, 10.4722
500, 10.5392
495, 10.5932
490, 10.6752
485, 10.7427
480, 10.8489
475, 10.9452
470, 11.0297
465, 11.1358
460, 11.2424
455, 11.3657
450, 11.4692
445, 11.534
440, 11.71
435, 11.8697
430, 12.0215
425, 12.2614
420, 12.4758
415, 12.7139
410, 12.8198
405, 12.8434
400, 12.6072
395, 12.3118
390, 11.8399
385, 11.4505
380, 11.0932
375, 10.8119
370, 10.3608
365, 10.0293
360, 10.3562
355, 10.8364
350, 12.4579

File: 43-K3Bi2I9.Sample.Raw.csv
nm, %R
900, 25.284
895, 25.5132
890, 25.6884
885, 25.8827
880, 26.0792
875, 26.26
870, 26.4794
865, 26.6349
860, 26.2878
855, 25.7759
850, 25.1585
845, 24.4947
840, 23.8437
835, 23.2646
830, 22.8166
825, 22.5588
820, 24.3482
815, 25.2287
810, 25.8136
805, 26.7076
800, 25.5765
795, 25.6061
790, 25.4083
785, 27.6009
780, 27.1461
775, 27.3422
770, 27.1778
765, 27.1091
760, 27.1063
755, 26.9312
750, 26.8634
745, 26.8527
740, 26.6999
735, 26.7372
730, 26.607
725, 26.4574
720, 26.3933
715, 26.334
710, 26.3432
705, 26.3039
700, 26.2608
695, 26.1667
690, 26.0483
685, 26.0447
680, 26.0656
675, 26.1962
670, 26.1435
665, 26.2417
660, 26.1862
655, 26.2735
650, 26.259
645, 26.307
640, 26.3581
635, 26.469
630, 26.453
625, 26.5299
620, 26.6205
615, 26.7863
610, 26.8641
605, 26.9908
600, 27.1303
595, 27.1419
590, 27.1498
585, 27.1484
580, 27.0293
575, 26.7885
570, 26.348
565, 25.8605
560, 25.3143
555, 25.0337
550, 24.7787
545, 24.4884
540, 24.1286
535, 23.6813
530, 23.0559
525, 22.2961
520, 21.3464
515, 20.356
510, 19.3719
505, 18.733
500, 18.449
495, 18.6641
490, 18.8856
485, 19.2559
480, 19.0258
475, 19.1396
470, 19.2203
465, 19.2799
460, 19.3112
455, 19.5457
450, 19.7605
445, 20.0983
440, 19.8854
435, 19.8654
430, 19.7487
425, 19.8083
420, 19.8436
415, 19.9384
410, 20.0597
405, 20.2153
400, 20.2831

File: 44-K3Sb2I9.Sample.Raw.csv
nm, %R
900, 17.4057
895, 17.5491
890, 17.7077
885, 17.8598
880, 18.0213
875, 18.1699
870, 18.3702
865, 18.5783
860, 18.5783
855, 18.7915
850, 19.1784
845, 19.6811
840, 20.2418
835, 20.8027
830, 21.306
825, 21.6939
820, 21.9085
815, 21.8922
810, 21.587
805, 20.9351
800, 20.1294
795, 19.3496
790, 19.3621
785, 21.9702
780, 21.3056
775, 21.8078
770, 21.7884
765, 20.3844
760, 23.124
755, 22.4324
750, 22.1674
745, 22.2488
740, 22.4397
735, 22.2396
730, 22.3575
725, 22.3917
720, 22.3951
715, 21.6773
710, 20.5392
705, 26.2535
700, 23.0766
695, 22.7981
690, 22.592
685, 22.7198
680, 22.7911
675, 22.9595
670, 22.9561
665, 23.0972
660, 23.1924
655, 23.2925
650, 23.3411
645, 23.4959
640, 23.601
635, 23.6766
630, 23.7481
625, 23.8714
620, 23.977
615, 24.1456
610, 24.3189
605, 24.4401
600, 24.6127
595, 24.7284
590, 24.8228
585, 25.0119
580, 25.0686
575, 25.0135
570, 24.7659
565, 24.2935
560, 23.5504
555, 22.6979
550, 21.5928
545, 20.3343
540, 19.0281
535, 17.8586
530, 16.7841
525, 15.8734
520, 15.1016
515, 14.439
510, 13.7856
505, 13.3344
500, 12.9798
495, 13.0402
490, 13.129
485, 13.3006
480, 12.9113
475, 12.8378
470, 12.7013
465, 12.573
460, 12.3517
455, 12.1866
450, 11.8682
445, 11.6693
440, 10.904
435, 10.2301
430, 9.519860
425, 8.903911
420, 8.452559
415, 8.078244
410, 7.814660
405, 7.746852
400, 7.579556

File: 45-Sample 153 CsBiI to CsSbI 9 to 1 P75 A150.csv
nm, %R
1100, 21.044
1090, 21.2293
1080, 21.4002
1070, 21.5723
1060, 21.7624
1050, 21.9669
1040, 22.1469
1030, 22.3472
1020, 22.5417
1010, 22.75
1000, 22.9704
990, 23.213
980, 23.4562
970, 23.7319
960, 24.0202
950, 24.3245
940, 24.6551
930, 25.0203
920, 25.393
910, 25.8202
900, 26.262
890, 26.7332
880, 27.1922
870, 27.6498
860, 28.0701
850, 25.6978
840, 22.4443
830, 20.5601
820, 25.3728
810, 27.114
800, 28.308
790, 28.3797
780, 28.7636
770, 28.7251
760, 28.3883
750, 28.2982
740, 28.0162
730, 27.8962
720, 27.6927
710, 27.5695
700, 27.5347
690, 27.2589
680, 27.0348
670, 26.9901
660, 27.0139
650, 26.879
640, 26.8362
630, 27.7789
620, 25.5289
610, 25.0542
600, 25.6816
590, 25.239
580, 24.8238
570, 24.2523
560, 23.6575
550, 23.1521
540, 22.6719
530, 22.1938
520, 21.7446
510, 21.1147
500, 19.9034
490, 18.0518
480, 17.4457
470, 18.4663
460, 19.4782
450, 20.3899
440, 20.9353
430, 20.763
420, 20.2659
410, 19.6385
400, 19.2143
390, 18.9495
380, 18.852
370, 19.2083
360, 17.996
350, 17.996
340, 17.996
330, 17.996
320, 17.996
310, 17.996
300, 17.996

File: 46-Sample 154 CsBiI to CsSbI 4 to 1 P75 A150.csv
nm, %R
1100, 19.0803
1090, 19.2044
1080, 19.3072
1070, 19.421
1060, 19.5338
1050, 19.673
1040, 19.8041
1030, 19.9425
1020, 20.0847
1010, 20.2378
1000, 20.4061
990, 20.5751
980, 20.7636
970, 20.9742
960, 21.1959
950, 21.4211
940, 21.6648
930, 21.959
920, 22.2631
910, 22.6073
900, 22.9583
890, 23.3144
880, 23.6683
870, 24.0485
860, 24.3273
850, 24.5312
840, 24.8171
830, 23.8532
820, 24.6039
810, 24.7403
800, 24.9067
790, 24.9166
780, 26.4504
770, 26.3092
760, 25.8898
750, 25.6066
740, 25.2907
730, 25.1021
720, 24.8926
710, 24.7963
700, 24.6266
690, 24.377
680, 24.001
670, 24.2143
660, 24.5993
650, 24.6818
640, 24.8794
630, 26.2302
620, 24.3059
610, 24.3942
600, 25.7289
590, 26.2149
580, 26.7942
570, 27.3172
560, 27.6748
550, 28.1468
540, 28.1205
530, 27.4244
520, 26.3457
510, 24.7336
500, 22.8714
490, 22.1922
480, 22.7819
470, 23.5265
460, 23.87
450, 24.006
440, 24.037
430, 23.2155
420, 22.4081
410, 21.4851
400, 20.7013
390, 19.9329
380, 19.2941
370, 19.254
360, 18.9903
350, 18.9489
340, 18.325
330, 17.9415
320, 18.1977
310, 19.7435
300, 16.9618

File: 47-Sample 155 CsBiI to CsSbI 7 to 3 P75 A150.csv
nm, %R
1100, 17.5908
1090, 17.7716
1080, 17.945
1070, 18.1221
1060, 18.3116
1050, 18.5218
1040, 18.724
1030, 18.941
1020, 19.1667
1010, 19.3957
1000, 19.6492
990, 19.9184
980, 20.2048
970, 20.5023
960, 20.8427
950, 21.1792
940, 21.5684
930, 21.9812
920, 22.4257
910, 22.8983
900, 23.4296
890, 23.939
880, 24.568
870, 25.1485
860, 25.6887
850, 25.9507
840, 26.3023
830, 26.7035
820, 27.1142
810, 27.4943
800, 27.8037
790, 28.0024
780, 27.5089
770, 27.7707
760, 27.802
750, 28.2663
740, 28.9363
730, 29.3008
720, 29.8062
710, 30.1706
700, 30.6986
690, 31.2061
680, 31.8417
670, 32.0816
660, 32.3901
650, 32.7938
640, 33.2786
630, 34.6864
620, 32.9761
610, 32.753
600, 33.4571
590, 32.9473
580, 32.3248
570, 31.3892
560, 30.2767
550, 28.848
540, 27.4956
530, 26.3342
520, 25.3961
510, 24.6109
500, 23.5893
490, 22.1193
480, 21.8165
470, 22.412
460, 22.7196
450, 22.6251
440, 22.3057
430, 22.0644
420, 21.6409
410, 21.1592
400, 20.9089
390, 20.866
380, 21.0477
370, 20.9664
360, 20.9664
350, 20.9664
340, 20.9664
330, 20.9664
320, 20.9664
310, 20.9664
300, 20.9664

File: 48-Sample 156 CsBiI to CsSbI 3 to 2 P75 A150.csv
nm, %R
1100, 19.2705
1090, 19.4618
1080, 19.6302
1070, 19.81
1060, 20.0043
1050, 20.2117
1040, 20.4243
1030, 20.6438
1020, 20.8632
1010, 21.1021
1000, 21.3608
990, 21.6397
980, 21.9256
970, 22.2467
960, 22.5814
950, 22.9441
940, 23.3316
930, 23.7696
920, 24.2209
910, 24.7398
900, 25.28
890, 25.8625
880, 26.4716
870, 27.0764
860, 27.6485
850, 27.2549
840, 26.6058
830, 26.0076
820, 25.7666
810, 27.9668
800, 29.8409
790, 30.3738
780, 30.799
770, 31.1545
760, 31.2854
750, 31.5207
740, 31.6574
730, 32.0597
720, 32.3471
710, 32.6945
700, 33.0398
690, 33.3009
680, 33.5426
670, 33.9332
660, 34.3084
650, 34.5255
640, 34.7955
630, 35.7588
620, 33.7271
610, 33.1351
600, 33.3056
590, 32.295
580, 31.0403
570, 29.5209
560, 27.8467
550, 26.3435
540, 25.0556
530, 23.9389
520, 23.0478
510, 22.1844
500, 21.4206
490, 20.9704
480, 20.6041
470, 20.2159
460, 20.1587
450, 20.3555
440, 20.6358
430, 20.5456
420, 20.2468
410, 19.8323
400, 19.5146
390, 19.3702
380, 19.3828
370, 20.0467
360, 20.0467
350, 20.0467
340, 20.0467
330, 20.0467
320, 20.0467
310, 20.0467
300, 20.0467

File: 49-Sample 157 CsBiI to CsSbI 1 to 1 P75 A125.csv
nm, %R
1100, 21.072
1090, 21.1208
1080, 21.1277
1070, 21.1302
1060, 21.1459
1050, 21.1858
1040, 21.2203
1030, 21.2628
1020, 21.3027
1010, 21.3505
1000, 21.4016
990, 21.4625
980, 21.5262
970, 21.6146
960, 21.7112
950, 21.8126
940, 21.9288
930, 22.0929
920, 22.2486
910, 22.4422
900, 22.6451
890, 22.8702
880, 23.0869
870, 23.3246
860, 23.5273
850, 23.5888
840, 22.8513
830, 17.0815
820, 20.8424
810, 22.4955
800, 23.4321
790, 23.6275
780, 24.0969
770, 24.0016
760, 23.8141
750, 23.6582
740, 23.6716
730, 23.7513
720, 23.8076
710, 24.0459
700, 24.284
690, 24.4875
680, 24.7068
670, 25.203
660, 25.835
650, 26.3238
640, 26.974
630, 28.6799
620, 27.0664
610, 27.2714
600, 28.4129
590, 28.3341
580, 27.941
570, 27.096
560, 25.9841
550, 24.832
540, 23.7419
530, 22.6721
520, 21.724
510, 20.8388
500, 20.0478
490, 19.9127
480, 19.5355
470, 18.7603
460, 18.4412
450, 18.7555
440, 19.2569
430, 19.3221
420, 19.2791
410, 19.0608
400, 18.9022
390, 18.9342
380, 19.0183
370, 19.7117
360, 18.8863
350, 21.637
340, 21.637
330, 21.637
320, 21.637
310, 21.637
300, 21.637

File: 50-Sample 158 CsBiI to CsSbI 2 to 3 P75 A125.csv
nm, %R
1100, 20.2982
1090, 20.3804
1080, 20.4414
1070, 20.5035
1060, 20.5892
1050, 20.6901
1040, 20.7937
1030, 20.9155
1020, 21.0502
1010, 21.1973
1000, 21.356
990, 21.5576
980, 21.752
970, 22.0019
960, 22.2701
950, 22.5577
940, 22.8921
930, 23.2748
920, 23.683
910, 24.1501
900, 24.6531
890, 25.1974
880, 25.7548
870, 26.3328
860, 26.8744
850, 27.3181
840, 27.8127
830, 27.612
820, 28.3624
810, 28.597
800, 28.8695
790, 29.153
780, 30.8266
770, 30.8773
760, 30.5988
750, 30.5011
740, 30.3075
730, 30.1337
720, 29.9374
710, 29.7018
700, 29.3245
690, 28.7044
680, 27.8193
670, 27.3937
660, 26.9344
650, 25.8943
640, 24.7484
630, 24.457
620, 20.5249
610, 18.3761
600, 17.3863
590, 15.5072
580, 14.1644
570, 13.3908
560, 13.3255
550, 14.2778
540, 15.3684
530, 16.293
520, 17.1778
510, 17.8028
500, 18.5303
490, 20.3182
480, 21.1431
470, 20.3682
460, 19.7626
450, 19.9699
440, 20.4154
430, 20.0176
420, 19.7096
410, 19.2624
400, 18.9007
390, 18.6129
380, 18.3584
370, 18.6238
360, 18.5874
350, 18.6066
340, 18.2321
330, 17.8838
320, 18.429
310, 19.6382
300, 16.5181

File: 51-Sample 159 CsBiI to CsSbI 3 to 7 P75 A125.csv
nm, %R
1100, 20.1602
1090, 20.4029
1080, 20.6447
1070, 20.8967
1060, 21.1801
1050, 21.4943
1040, 21.8162
1030, 22.1526
1020, 22.5194
1010, 22.9017
1000, 23.3245
990, 23.7745
980, 24.2359
970, 24.7316
960, 25.2671
950, 25.8193
940, 26.43
930, 27.0568
920, 27.702
910, 28.3835
900, 29.1278
890, 29.8302
880, 30.5942
870, 31.3119
860, 31.9047
850, 32.3116
840, 32.8411
830, 32.8397
820, 33.2909
810, 33.134
800, 32.8866
790, 32.6383
780, 33.7066
770, 33.1831
760, 32.1555
750, 31.0802
740, 30.0335
730, 28.8169
720, 27.4484
710, 25.9804
700, 24.3869
690, 22.431
680, 20.315
670, 18.6933
660, 17.29
650, 15.6343
640, 14.3437
630, 14.705
620, 11.8276
610, 11.925
600, 14.1018
590, 15.7621
580, 17.6489
570, 19.2959
560, 20.497
550, 21.6322
540, 22.2508
530, 22.346
520, 21.9342
510, 20.8679
500, 19.6553
490, 19.7732
480, 19.3875
470, 18.0813
460, 17.436
450, 18.0012
440, 19.1661
430, 19.3746
420, 19.3917
410, 19.0935
400, 18.7545
390, 18.4419
380, 18.206
370, 18.4734
360, 18.535
350, 18.5902
340, 18.1226
330, 17.9826
320, 18.7412
310, 19.2415
300, 16.554

File: 52-Sample 160 CsBiI to CsSbI 1 to 4 P75 A100.csv
nm, %R
1100, 17.4473
1090, 17.4869
1080, 17.5203
1070, 17.5792
1060, 17.6509
1050, 17.7588
1040, 17.8839
1030, 18.0133
1020, 18.179
1010, 18.3706
1000, 18.5861
990, 18.8409
980, 19.1217
970, 19.4394
960, 19.8071
950, 20.2055
940, 20.6733
930, 21.1706
920, 21.6971
910, 22.3002
900, 22.976
890, 23.6407
880, 24.437
870, 25.1985
860, 25.9566
850, 26.5219
840, 26.531
830, 22.1108
820, 25.9716
810, 27.7762
800, 28.961
790, 29.3707
780, 30.2769
770, 30.4318
760, 30.4243
750, 30.2622
740, 30.1976
730, 30.082
720, 29.6974
710, 29.3236
700, 28.8381
690, 28.1057
680, 27.0296
670, 26.0828
660, 25.0846
650, 23.5483
640, 21.967
630, 21.2656
620, 16.8288
610, 14.4265
600, 13.468
590, 11.9745
580, 11.2006
570, 11.2307
560, 12.0127
550, 13.5919
540, 15.5866
530, 17.8521
520, 20.2868
510, 22.3842
500, 23.6511
490, 24.4352
480, 23.991
470, 22.562
460, 21.5228
450, 21.2858
440, 21.2795
430, 20.9124
420, 20.8448
410, 20.7521
400, 20.7995
390, 21.0333
380, 21.2898
370, 21.9321
360, 21.1644
350, 23.6781
340, 23.6781
330, 23.6781
320, 23.6781
310, 23.6781
300, 23.6781

File: 53-Sample 161 CsBiI to CsSbI 1 to 9 P75 A100.csv
nm, %R
1100, 19.2642
1090, 19.4431
1080, 19.6185
1070, 19.7796
1060, 19.9545
1050, 20.1688
1040, 20.3768
1030, 20.6002
1020, 20.8302
1010, 21.067
1000, 21.3225
990, 21.6008
980, 21.8845
970, 22.1984
960, 22.525
950, 22.8776
940, 23.2498
930, 23.657
920, 24.087
910, 24.563
900, 25.0552
890, 25.5903
880, 26.1296
870, 26.694
860, 27.223
850, 27.6322
840, 28.6016
830, 28.3019
820, 28.8525
810, 29.0281
800, 29.2366
790, 29.3021
780, 30.9941
770, 30.9911
760, 30.6585
750, 30.56
740, 30.3788
730, 30.3031
720, 30.145
710, 30.0808
700, 30.0088
690, 29.724
680, 29.3228
670, 29.4417
660, 29.5938
650, 29.2547
640, 28.7975
630, 29.0529
620, 25.5766
610, 23.5777
600, 22.3446
590, 20.1275
580, 18.2623
570, 16.6881
560, 15.5183
550, 14.9873
540, 14.5133
530, 13.8229
520, 13.0071
510, 11.9806
500, 11.2331
490, 11.9817
480, 11.967
470, 10.6193
460, 9.871419
450, 10.1392
440, 10.7466
430, 10.4749
420, 10.3543
410, 10.2263
400, 10.1381
390, 9.943861
380, 9.669869
370, 9.957213
360, 10.0524
350, 10.3611
340, 10.4463
330, 10.3645
320, 10.8726
310, 12.0992
300, 9.542794

File: 54-1SbBr-9BiI.Sample.Raw.csv
nm, %R
1100, 19.7398
1095, 19.8093
1090, 19.8889
1085, 19.9556
1080, 20.0202
1075, 20.0791
1070, 20.144
1065, 20.2176
1060, 20.2873
1055, 20.3502
1050, 20.4048
1045, 20.4731
1040, 20.5419
1035, 20.6298
1030, 20.6852
1025, 20.7443
1020, 20.8006
1015, 20.8621
1010, 20.9237
1005, 20.9919
1000, 21.0551
995, 21.1078
990, 21.1813
985, 21.2426
980, 21.3049
975, 21.3827
970, 21.4405
965, 21.5168
960, 21.5791
955, 21.6634
950, 21.7108
945, 21.7697
940, 21.8439
935, 21.9041
930, 21.9591
925, 22.0271
920, 22.0923
915, 22.1634
910, 22.233
905, 22.2925
900, 22.3608
895, 22.4154
890, 22.4635
885, 22.5375
880, 22.5938
875, 22.6582
870, 22.706
865, 22.7468
860, 22.8279
855, 22.8279
850, 22.8279
845, 22.8279
840, 22.8279
835, 22.8279
830, 22.8279
825, 22.8279
820, 22.8279
815, 22.8279
810, 22.8279
805, 22.8279
800, 22.8279
795, 22.8279
790, 22.8279
785, 22.8279
780, 23.2698
775, 24.9706
770, 24.8723
765, 24.9241
760, 24.9051
755, 24.7147
750, 24.5728
745, 24.5098
740, 24.5086
735, 24.3863
730, 24.3288
725, 24.3125
720, 24.2651
715, 24.1605
710, 24.1379
705, 24.0704
700, 23.9794
695, 23.8401
690, 23.3322
685, 23.793
680, 23.9788
675, 23.568
670, 23.5682
665, 23.5778
660, 23.6368
655, 23.6626
650, 23.671
645, 23.7524
640, 23.7449
635, 23.7329
630, 23.757
625, 23.6926
620, 23.6515
615, 23.5881
610, 23.4898
605, 23.3563
600, 23.2891
595, 23.1778
590, 23.0095
585, 22.8217
580, 22.6296
575, 22.3946
570, 22.1958
565, 22.1377
560, 22.0143
555, 21.0144
550, 20.3238
545, 19.9342
540, 19.6044
535, 19.3317
530, 19.1603
525, 19.0999
520, 19.1908
515, 19.4695
510, 19.8673
505, 19.8331
500, 19.0103
495, 17.1514
490, 15.2037
485, 14.4654
480, 15.8771
475, 16.6612
470, 17.5805
465, 18.3752
460, 18.7672
455, 18.5744
450, 18.1714
445, 17.6935
440, 18.3245
435, 18.8476
430, 19.2243
425, 19.6102
420, 19.9298
415, 20.4131
410, 21.0151
405, 20.7184
400, 20.4813
395, 20.1631
390, 19.9524
385, 20.0678
380, 18.9616
375, 18.9616
370, 18.9616
365, 18.9616
360, 18.9616
355, 18.9616
350, 18.9616
345, 18.9616
340, 18.9616
335, 18.9616
330, 18.9616
325, 18.9616
320, 18.9616
315, 18.9616
310, 18.9616
305, 18.9616
300, 18.9616

File: 55-2SbBr-8BiI-2nd.Sample.Raw.csv
nm, %R
1100, 17.973
1095, 18.0254
1090, 18.0875
1085, 18.1297
1080, 18.1858
1075, 18.2238
1070, 18.2725
1065, 18.3368
1060, 18.3794
1055, 18.4219
1050, 18.4686
1045, 18.5314
1040, 18.5675
1035, 18.6357
1030, 18.6811
1025, 18.7187
1020, 18.7597
1015, 18.8151
1010, 18.8573
1005, 18.9038
1000, 18.9326
995, 18.9964
990, 19.0495
985, 19.0948
980, 19.1389
975, 19.1984
970, 19.2368
965, 19.3002
960, 19.3226
955, 19.3746
950, 19.4283
945, 19.467
940, 19.5328
935, 19.5796
930, 19.6106
925, 19.6517
920, 19.698
915, 19.7476
910, 19.7974
905, 19.8434
900, 19.8894
895, 19.9321
890, 19.9552
885, 20.0131
880, 20.0385
875, 20.0666
870, 20.1053
865, 20.0953
860, 20.162
855, 20.162
850, 20.162
845, 20.162
840, 20.162
835, 20.162
830, 20.162
825, 20.162
820, 20.162
815, 20.162
810, 20.162
805, 20.162
800, 20.162
795, 20.162
790, 20.162
785, 20.162
780, 20.6192
775, 22.3788
770, 22.2771
765, 22.3307
760, 22.3109
755, 22.114
750, 21.9672
745, 21.902
740, 21.9008
735, 21.7743
730, 21.7148
725, 21.6979
720, 21.6489
715, 21.5407
710, 21.5172
705, 21.4474
700, 21.3533
695, 21.2382
690, 21.0834
685, 20.9045
680, 21.179
675, 21.507
670, 21.2766
665, 20.1088
660, 20.3074
655, 20.347
650, 20.3707
645, 20.425
640, 20.469
635, 20.5592
630, 20.66
625, 20.6451
620, 20.6848
615, 20.721
610, 20.7444
605, 20.7364
600, 20.7089
595, 20.6946
590, 20.5984
585, 20.5313
580, 20.4538
575, 20.4374
570, 20.5115
565, 20.7663
560, 20.9905
555, 19.8405
550, 19.1856
545, 19.0087
540, 18.9041
535, 18.8224
530, 18.8354
525, 18.9691
520, 19.3008
515, 19.9202
510, 20.657
505, 20.8291
500, 19.7065
495, 17.278
490, 14.65
485, 13.8553
480, 16.2792
475, 17.5463
470, 18.843
465, 19.7907
460, 20.0328
455, 19.5697
450, 18.6821
445, 17.5022
440, 18.1411
435, 18.704
430, 19.1889
425, 19.6192
420, 19.7338
415, 19.8913
410, 20.0458
405, 19.7455
400, 19.5054
395, 19.1833
390, 18.97
385, 19.0868
380, 17.967
375, 17.967
370, 17.967
365, 17.967
360, 17.967
355, 17.967
350, 17.967
345, 17.967
340, 17.967
335, 17.967
330, 17.967
325, 17.967
320, 17.967
315, 17.967
310, 17.967
305, 17.967
300, 17.967