Folder: campaign1/UV-Vis data/Transmission

Note: README.md
# campaign1
raw data for campaign 1.0

File: 1-FAPbI3.Sample.Raw.csv
nm, %T
1100, 84.3936
1096, 84.2861
1092, 84.1206
1088, 83.9086
1084, 83.7637
1080, 83.5868
1076, 83.3687
1072, 83.1882
1068, 82.9764
1064, 82.7117
1060, 82.5212
1056, 82.2366
1052, 81.9559
1048, 81.6899
1044, 81.4388
1040, 81.1204
1036, 80.8453
1032, 80.5595
1028, 80.2874
1024, 79.9716
1020, 79.6674
1016, 79.3744
1012, 79.0528
1008, 78.7575
1004, 78.4663
1000, 78.1785
996, 77.8741
992, 77.5949
988, 77.3333
984, 77.0525
980, 76.8078
976, 76.5389
972, 76.302
968, 76.0649
964, 75.8838
960, 75.6792
956, 75.4979
952, 75.3318
948, 75.2073
944, 75.0758
940, 75.0038
936, 74.9016
932, 74.8794
928, 74.8427
924, 74.8567
920, 74.8787
916, 74.9391
912, 75.0255
908, 75.1341
904, 75.2575
900, 75.4555
896, 75.6097
892, 75.8494
888, 76.0853
884, 76.351
880, 76.6237
876, 76.9123
872, 77.1749
868, 77.4569
864, 77.7027
860, 77.8617
856, 77.8617
852, 77.8617
848, 77.8617
844, 77.8617
840, 77.8617
836, 77.8617
832, 77.8617
828, 77.8617
824, 77.8617
820, 77.8617
816, 77.8617
812, 69.8445
808, 66.9339
804, 64.1152
800, 61.527
796, 59.2672
792, 57.4493
788, 55.7093
784, 54.539
780, 53.1994
776, 52.1258
772, 51.313
768, 50.4189
764, 49.8226
760, 49.0825
756, 48.5263
752, 47.9232
748, 47.3198
744, 46.8069
740, 46.1596
736, 45.4783
732, 44.8771
728, 44.2953
724, 43.6205
720, 42.8823
716, 42.114
712, 41.3437
708, 40.5949
704, 39.829
700, 39.1293
696, 38.3281
692, 37.4529
688, 36.646
684, 36.1166
680, 35.6335
676, 35.1664
672, 34.5099
668, 33.8156
664, 33.1375
660, 32.5451
656, 32.0865
652, 31.6149
648, 31.0894
644, 30.4886
640, 29.8757
636, 29.1047
632, 28.4438
628, 27.8606
624, 27.3364
620, 26.888
616, 26.4253
612, 25.9966
608, 25.5351
604, 25.0615
600, 24.5951
596, 24.1776
592, 23.7785
588, 23.4203
584, 23.078
580, 22.7039
576, 22.2754
572, 21.7421
568, 21.2035
564, 20.6576
560, 20.159
556, 19.7883
552, 19.4572
548, 19.2602
544, 19.1643
540, 19.1122
536, 19.0429
532, 18.9387
528, 18.755
524, 18.5411
520, 18.278
516, 18.0076
512, 17.6832
508, 17.3288
504, 16.995
500, 16.776
496, 16.7192
492, 16.7546
488, 16.7788
484, 16.7691
480, 16.7051
476, 16.6441
472, 16.5356
468, 16.433
464, 16.3099
460, 16.1744
456, 15.9903
452, 15.7767
448, 15.3755
444, 14.8674
440, 14.1049
436, 13.0969
432, 11.8052
428, 10.2695
424, 8.553773
420, 6.847652
416, 5.191220
412, 3.720849
408, 2.478333
404, 1.468700
400, 0.733473
396, 0.249032
392, 0.076616
388, 0.017905
384, 0.060100
380, 0.052513
376, 0.052513
372, 0.052513
368, 0.052513
364, 0.052513
360, 0.052513
356, 0.052513
352, 0.052513
348, 0.052513
344, 0.052513
340, 0.052513
336, 0.052513
332, 0.052513
328, 0.052513
324, 0.052513
320, 0.052513
316, 0.052513
312, 0.052513
308, 0.052513
304, 0.052513
300, 0.052513

File: 2-FAPbI3 MAPbBr3 9-1.Sample.Raw.csv
nm, %T
1100, 88.4971
1096, 88.2881
1092, 87.9665
1088, 87.6432
1084, 87.3581
1080, 86.9507
1076, 86.5487
1072, 86.1502
1068, 85.6885
1064, 85.1933
1060, 84.7052
1056, 84.1782
1052, 83.6209
1048, 83.0378
1044, 82.4634
1040, 81.8165
1036, 81.2159
1032, 80.6106
1028, 79.9733
1024, 79.3242
1020, 78.6908
1016, 78.037
1012, 77.3619
1008, 76.7164
1004, 76.0634
1000, 75.466
996, 74.8319
992, 74.229
988, 73.6459
984, 73.0635
980, 72.4967
976, 71.9516
972, 71.4358
968, 70.9399
964, 70.4925
960, 70.0898
956, 69.6796
952, 69.3215
948, 69.0095
944, 68.7361
940, 68.5292
936, 68.3243
932, 68.1837
928, 68.09
924, 68.047
920, 68.0575
916, 68.1174
912, 68.2479
908, 68.4185
904, 68.6554
900, 68.9669
896, 69.3272
892, 69.801
888, 70.3177
884, 70.9432
880, 71.6236
876, 72.3308
872, 73.132
868, 74.0041
864, 74.9155
860, 75.7993
856, 75.7993
852, 75.7993
848, 75.7993
844, 75.7993
840, 75.7993
836, 75.7993
832, 75.7993
828, 75.7993
824, 75.7993
820, 75.7993
816, 75.7993
812, 76.772
808, 77.3141
804, 73.8975
800, 69.8061
796, 65.07
792, 60.3822
788, 56.1052
784, 52.447
780, 49.0829
776, 46.3957
772, 43.9361
768, 41.7748
764, 39.7579
760, 37.9911
756, 36.416
752, 34.9892
748, 33.5948
744, 32.4801
740, 31.3633
736, 30.323
732, 29.3586
728, 28.5095
724, 27.5606
720, 26.7111
716, 25.8813
712, 25.1072
708, 24.3221
704, 23.7715
700, 23.1367
696, 22.6487
692, 22.1904
688, 21.7685
684, 21.3835
680, 20.9117
676, 20.5035
672, 20.0362
668, 19.5638
664, 19.1344
660, 18.5612
656, 18.0676
652, 17.4543
648, 16.8415
644, 16.1849
640, 15.5625
636, 14.9253
632, 14.2062
628, 13.4415
624, 12.6386
620, 11.8531
616, 11.0731
612, 10.3378
608, 9.650899
604, 9.001282
600, 8.337147
596, 7.664959
592, 6.929233
588, 6.148496
584, 5.324680
580, 4.575346
576, 3.948271
572, 3.431800
568, 3.034882
564, 2.723657
560, 2.422943
556, 2.114279
552, 1.772929
548, 1.357165
544, 0.919446
540, 0.537681
536, 0.322096
532, 0.200480
528, 0.147015
524, 0.122860
520, 0.105784
516, 0.092281
512, 0.093040
508, 0.070613
504, 0.076637
500, 0.075317
496, 0.061533
492, 0.056878
488, 0.057722
484, 0.054808
480, 0.048859
476, 0.048752
472, 0.036559
468, 0.054505
464, 0.040179
460, 0.044738
456, 0.025059
452, 0.019550
448, 0.008734
444, 0.035952
440, 0.028952
436, 0.040758
432, 0.031084
428, 0.032247
424, 0.019534
420, 0.015888
416, 0.024162
412, 0.003166
408, -0.012978
404, 0.046374
400, 0.013023
396, 0.026473
392, 0.004416
388, 0.018625
384, 0.016877
380, 0.029197
376, 0.029197
372, 0.029197
368, 0.029197
364, 0.029197
360, 0.029197
356, 0.029197
352, 0.029197
348, 0.029197
344, 0.029197
340, 0.029197
336, 0.029197
332, 0.029197
328, 0.029197
324, 0.029197
320, 0.029197
316, 0.029197
312, 0.029197
308, 0.029197
304, 0.029197
300, 0.029197

File: 3-FAPbI3 MAPbBr3 8-2.Sample.Raw.csv
nm, %T
1100, 86.7047
1096, 87.0441
1092, 87.3064
1088, 87.56
1084, 87.8672
1080, 88.0825
1076, 88.3024
1072, 88.5465
1068, 88.6884
1064, 88.8263
1060, 88.9888
1056, 89.0469
1052, 89.1009
1048, 89.1121
1044, 89.1014
1040, 89.0181
1036, 88.9421
1032, 88.8437
1028, 88.682
1024, 88.4933
1020, 88.2411
1016, 87.9869
1012, 87.6684
1008, 87.3139
1004, 86.9269
1000, 86.5212
996, 86.0572
992, 85.577
988, 85.0598
984, 84.5057
980, 83.9613
976, 83.3531
972, 82.7364
968, 82.0835
964, 81.4456
960, 80.7823
956, 80.075
952, 79.3965
948, 78.7311
944, 78.0211
940, 77.3567
936, 76.6554
932, 75.9936
928, 75.3367
924, 74.6661
920, 74.0334
916, 73.4776
912, 72.8856
908, 72.3324
904, 71.7997
900, 71.3056
896, 70.8289
892, 70.4472
888, 70.0406
884, 69.69
880, 69.4005
876, 69.1465
872, 68.9684
868, 68.8358
864, 68.7725
860, 68.725
856, 68.725
852, 68.725
848, 68.725
844, 68.725
840, 68.725
836, 68.725
832, 68.725
828, 68.725
824, 68.725
820, 68.725
816, 68.725
812, 72.0881
808, 72.9379
804, 73.5724
800, 74.3443
796, 75.134
792, 75.8514
788, 76.3433
784, 76.5339
780, 76.2216
776, 74.9318
772, 72.8429
768, 69.5397
764, 65.47
760, 60.6184
756, 56.299
752, 52.1263
748, 48.5977
744, 45.8075
740, 43.4915
736, 41.5465
732, 39.9751
728, 38.6462
724, 37.4207
720, 36.2909
716, 35.3106
712, 34.3224
708, 33.2917
704, 32.3267
700, 31.435
696, 30.4932
692, 29.5792
688, 28.6888
684, 27.8631
680, 27.018
676, 26.2432
672, 25.4694
668, 24.6804
664, 23.9191
660, 23.1898
656, 22.3773
652, 21.6157
648, 20.8542
644, 20.1601
640, 19.4094
636, 18.5743
632, 17.6866
628, 16.851
624, 16.0263
620, 15.291
616, 14.5206
612, 13.6113
608, 12.5492
604, 11.4773
600, 10.427
596, 9.564737
592, 8.865402
588, 8.272559
584, 7.678626
580, 7.010390
576, 6.234949
572, 5.388952
568, 4.595733
564, 3.923124
560, 3.381974
556, 2.999001
552, 2.692527
548, 2.432106
544, 2.174711
540, 1.855886
536, 1.510763
532, 1.114573
528, 0.763440
524, 0.507766
520, 0.366873
516, 0.271019
512, 0.230658
508, 0.186971
504, 0.162687
500, 0.154824
496, 0.124801
492, 0.107752
488, 0.102132
484, 0.101889
480, 0.080210
476, 0.079286
472, 0.076275
468, 0.079159
464, 0.081582
460, 0.043107
456, 0.073547
452, 0.045210
448, 0.022851
444, 0.069974
440, 0.056075
436, 0.063220
432, 0.048454
428, 0.028076
424, 0.009563
420, 0.043182
416, 0.046285
412, -0.016441
408, 0.048847
404, 0.020474
400, 0.015996
396, 0.001129
392, 0.000822
388, -0.041881
384, -0.028198
380, -0.055504
376, -0.055504
372, -0.055504
368, -0.055504
364, -0.055504
360, -0.055504
356, -0.055504
352, -0.055504
348, -0.055504
344, -0.055504
340, -0.055504
336, -0.055504
332, -0.055504
328, -0.055504
324, -0.055504
320, -0.055504
316, -0.055504
312, -0.055504
308, -0.055504
304, -0.055504
300, -0.055504

File: 4-FAPbI3 MAPbBr3 7-3.Sample.Raw.csv
nm, %T
1100, 80.7947
1096, 81.0685
1092, 81.2776
1088, 81.5145
1084, 81.7568
1080, 81.9846
1076, 82.2207
1072, 82.4646
1068, 82.6666
1064, 82.8771
1060, 83.1219
1056, 83.3014
1052, 83.4887
1048, 83.6837
1044, 83.8518
1040, 83.9684
1036, 84.1452
1032, 84.296
1028, 84.4324
1024, 84.5212
1020, 84.6187
1016, 84.699
1012, 84.7439
1008, 84.8002
1004, 84.8321
1000, 84.8512
996, 84.8344
992, 84.8289
988, 84.778
984, 84.6833
980, 84.6175
976, 84.489
972, 84.3757
968, 84.1988
964, 84.0319
960, 83.8669
956, 83.6478
952, 83.4097
948, 83.164
944, 82.9054
940, 82.627
936, 82.3165
932, 82.0091
928, 81.6821
924, 81.3344
920, 80.9712
916, 80.6104
912, 80.209
908, 79.8309
904, 79.4185
900, 79.0549
896, 78.6036
892, 78.2197
888, 77.7974
884, 77.4219
880, 77.0285
876, 76.6684
872, 76.3013
868, 75.989
864, 75.6676
860, 75.3073
856, 75.3073
852, 75.3073
848, 75.3073
844, 75.3073
840, 75.3073
836, 75.3073
832, 75.3073
828, 75.3073
824, 75.3073
820, 75.3073
816, 75.3073
812, 72.9266
808, 72.9904
804, 72.9546
800, 72.9909
796, 73.237
792, 73.2441
788, 73.2829
784, 73.6691
780, 73.948
776, 74.2841
772, 74.5197
768, 74.7516
764, 74.8457
760, 74.8801
756, 74.6521
752, 74.1729
748, 73.2442
744, 71.7658
740, 69.3232
736, 66.1115
732, 61.9987
728, 57.4125
724, 52.8434
720, 48.9519
716, 46.0721
712, 43.9246
708, 42.5675
704, 41.6435
700, 41.0019
696, 40.503
692, 40.0652
688, 39.6805
684, 39.279
680, 38.819
676, 38.3876
672, 37.8549
668, 37.3422
664, 36.8189
660, 36.2177
656, 35.6724
652, 35.0396
648, 34.4412
644, 33.764
640, 33.1308
636, 32.4409
632, 31.7639
628, 31.0799
624, 30.3608
620, 29.664
616, 28.9545
612, 28.163
608, 27.3417
604, 26.4681
600, 25.6209
596, 24.7505
592, 23.81
588, 22.739
584, 21.4818
580, 20.0894
576, 18.7136
572, 17.398
568, 16.1096
564, 14.5934
560, 12.691
556, 10.4857
552, 8.246717
548, 6.420984
544, 5.141089
540, 4.334480
536, 3.847821
532, 3.479547
528, 3.046413
524, 2.472604
520, 1.784232
516, 1.157554
512, 0.723771
508, 0.485899
504, 0.344611
500, 0.282566
496, 0.240519
492, 0.244808
488, 0.201113
484, 0.213641
480, 0.200017
476, 0.206103
472, 0.207237
468, 0.195809
464, 0.182948
460, 0.182008
456, 0.147196
452, 0.148663
448, 0.114559
444, 0.131621
440, 0.125762
436, 0.114955
432, 0.101886
428, 0.080465
424, 0.084951
420, 0.068032
416, 0.053829
412, 0.030125
408, 0.015737
404, 0.040743
400, 0.035274
396, 0.041865
392, 0.041286
388, 0.045174
384, 0.013687
380, -0.046632
376, -0.046632
372, -0.046632
368, -0.046632
364, -0.046632
360, -0.046632
356, -0.046632
352, -0.046632
348, -0.046632
344, -0.046632
340, -0.046632
336, -0.046632
332, -0.046632
328, -0.046632
324, -0.046632
320, -0.046632
316, -0.046632
312, -0.046632
308, -0.046632
304, -0.046632
300, -0.046632

File: 5-FAPbI3 MAPbBr3 6-4.Sample.Raw.csv
nm, %T
1100, 80.2695
1096, 80.6975
1092, 81.0508
1088, 81.4272
1084, 81.8843
1080, 82.266
1076, 82.6914
1072, 83.0934
1068, 83.5035
1064, 83.8971
1060, 84.324
1056, 84.7091
1052, 85.0785
1048, 85.4723
1044, 85.8426
1040, 86.1888
1036, 86.5057
1032, 86.8506
1028, 87.1714
1024, 87.4686
1020, 87.7309
1016, 87.9574
1012, 88.1719
1008, 88.3656
1004, 88.5655
1000, 88.6931
996, 88.7584
992, 88.8286
988, 88.8522
984, 88.8396
980, 88.7971
976, 88.7066
972, 88.5844
968, 88.3816
964, 88.168
960, 87.9344
956, 87.627
952, 87.2789
948, 86.8939
944, 86.4802
940, 86.0193
936, 85.5215
932, 84.9847
928, 84.4267
924, 83.8152
920, 83.1861
916, 82.568
912, 81.8808
908, 81.203
904, 80.49
900, 79.7841
896, 79.053
892, 78.3305
888, 77.5764
884, 76.8408
880, 76.1228
876, 75.3827
872, 74.6874
868, 74.0091
864, 73.35
860, 72.6818
856, 72.6818
852, 72.6818
848, 72.6818
844, 72.6818
840, 72.6818
836, 72.6818
832, 72.6818
828, 72.6818
824, 72.6818
820, 72.6818
816, 72.6818
812, 68.587
808, 68.5601
804, 68.52
800, 68.585
796, 68.5308
792, 68.9668
788, 69.4297
784, 70.0425
780, 70.4756
776, 71.2076
772, 72.0013
768, 72.8193
764, 73.8389
760, 74.668
756, 75.8595
752, 76.94
748, 77.9014
744, 79.0133
740, 79.8948
736, 80.5443
732, 80.6692
728, 79.9643
724, 78.0248
720, 74.2403
716, 68.4479
712, 60.4889
708, 51.2533
704, 42.1864
700, 34.6433
696, 29.0695
692, 25.4278
688, 23.1987
684, 21.8693
680, 20.9988
676, 20.4064
672, 19.9153
668, 19.4866
664, 19.084
660, 18.6295
656, 18.1956
652, 17.6808
648, 17.1878
644, 16.6888
640, 16.1729
636, 15.6605
632, 15.0882
628, 14.5636
624, 14.0031
620, 13.4392
616, 12.8658
612, 12.2974
608, 11.6936
604, 11.1157
600, 10.487
596, 9.885104
592, 9.241831
588, 8.593314
584, 7.943779
580, 7.297178
576, 6.641266
572, 5.942863
568, 5.317241
564, 4.741007
560, 4.201871
556, 3.735878
552, 3.308821
548, 2.895374
544, 2.518178
540, 2.151947
536, 1.837957
532, 1.560809
528, 1.323649
524, 1.118902
520, 0.945212
516, 0.781173
512, 0.637479
508, 0.524788
504, 0.406105
500, 0.322932
496, 0.257867
492, 0.213367
488, 0.140444
484, 0.124158
480, 0.107999
476, 0.084375
472, 0.073220
468, 0.069277
464, 0.049459
460, 0.037502
456, 0.037385
452, 0.053763
448, 0.009039
444, 0.058397
440, 0.049370
436, 0.016059
432, 0.023872
428, 0.008850
424, 0.022586
420, 0.025054
416, 0.048324
412, 0.006127
408, 0.022073
404, 0.049342
400, -0.016304
396, -0.006977
392, 0.022081
388, 0.037456
384, 0.010806
380, -0.058187
376, -0.058187
372, -0.058187
368, -0.058187
364, -0.058187
360, -0.058187
356, -0.058187
352, -0.058187
348, -0.058187
344, -0.058187
340, -0.058187
336, -0.058187
332, -0.058187
328, -0.058187
324, -0.058187
320, -0.058187
316, -0.058187
312, -0.058187
308, -0.058187
304, -0.058187
300, -0.058187

File: 6-FAPbI3 MAPbBr3 5-5.Sample.Raw.csv
nm, %T
1100, 79.3655
1096, 79.5256
1092, 79.624
1088, 79.768
1084, 79.9106
1080, 80.0417
1076, 80.1936
1072, 80.3492
1068, 80.5008
1064, 80.6313
1060, 80.8
1056, 80.9205
1052, 81.0516
1048, 81.1917
1044, 81.3262
1040, 81.4352
1036, 81.5815
1032, 81.6912
1028, 81.8396
1024, 81.9618
1020, 82.0406
1016, 82.1519
1012, 82.2603
1008, 82.3331
1004, 82.4266
1000, 82.5229
996, 82.5928
992, 82.6256
988, 82.6994
984, 82.7447
980, 82.7899
976, 82.8058
972, 82.8224
968, 82.8394
964, 82.8528
960, 82.8313
956, 82.8036
952, 82.7746
948, 82.7436
944, 82.6645
940, 82.6034
936, 82.533
932, 82.4543
928, 82.3701
924, 82.2638
920, 82.1561
916, 82.0387
912, 81.9151
908, 81.7751
904, 81.6206
900, 81.4731
896, 81.2819
892, 81.1256
888, 80.9328
884, 80.7299
880, 80.5264
876, 80.3005
872, 80.0658
868, 79.8601
864, 79.6029
860, 79.3199
856, 79.3199
852, 79.3199
848, 79.3199
844, 79.3199
840, 79.3199
836, 79.3199
832, 79.3199
828, 79.3199
824, 79.3199
820, 79.3199
816, 79.3199
812, 77.4228
808, 76.9429
804, 76.7661
800, 76.7822
796, 76.5391
792, 76.4721
788, 76.3556
784, 76.5857
780, 76.5471
776, 76.4489
772, 76.6323
768, 76.6009
764, 76.6982
760, 76.6823
756, 76.8359
752, 76.8343
748, 76.9608
744, 77.058
740, 77.0222
736, 77.1146
732, 77.2277
728, 77.2729
724, 77.2819
720, 77.2802
716, 77.2931
712, 77.2412
708, 77.0777
704, 76.814
700, 76.4626
696, 75.7469
692, 74.6446
688, 72.9127
684, 70.2977
680, 66.1441
676, 60.2958
672, 52.3415
668, 43.0759
664, 33.8869
660, 26.2976
656, 21.1099
652, 17.9688
648, 16.3354
644, 15.5904
640, 15.2523
636, 15.0772
632, 14.9646
628, 14.8361
624, 14.635
620, 14.3697
616, 14.0873
612, 13.7446
608, 13.3711
604, 12.971
600, 12.5456
596, 12.0973
592, 11.6366
588, 11.1496
584, 10.6583
580, 10.1415
576, 9.640580
572, 9.118415
568, 8.579634
564, 8.045819
560, 7.528008
556, 7.001611
552, 6.466245
548, 5.944049
544, 5.440194
540, 4.950865
536, 4.489974
532, 4.022964
528, 3.591013
524, 3.197211
520, 2.815112
516, 2.462778
512, 2.153420
508, 1.850982
504, 1.563846
500, 1.335877
496, 1.103613
492, 0.917265
488, 0.751810
484, 0.628009
480, 0.502434
476, 0.422384
472, 0.344512
468, 0.283729
464, 0.237302
460, 0.187307
456, 0.134158
452, 0.106915
448, 0.090287
444, 0.095567
440, 0.083401
436, 0.093407
432, 0.065723
428, 0.052795
424, 0.039474
420, 0.049191
416, 0.079316
412, 0.026653
408, 0.006336
404, 0.041153
400, 0.011382
396, 0.068235
392, 0.013454
388, 0.039617
384, 0.046825
380, -0.035180
376, -0.035180
372, -0.035180
368, -0.035180
364, -0.035180
360, -0.035180
356, -0.035180
352, -0.035180
348, -0.035180
344, -0.035180
340, -0.035180
336, -0.035180
332, -0.035180
328, -0.035180
324, -0.035180
320, -0.035180
316, -0.035180
312, -0.035180
308, -0.035180
304, -0.035180
300, -0.035180

File: 7FAPbI3 MAPbBr3 4-6.Sample.Raw.csv
nm, %T
1100, 74.4289
1096, 74.5672
1092, 74.6853
1088, 74.8163
1084, 74.9752
1080, 75.1684
1076, 75.3494
1072, 75.544
1068, 75.763
1064, 75.9764
1060, 76.2189
1056, 76.4723
1052, 76.6935
1048, 76.9592
1044, 77.236
1040, 77.4858
1036, 77.7731
1032, 78.0756
1028, 78.3916
1024, 78.6906
1020, 78.9849
1016, 79.323
1012, 79.6745
1008, 80.0203
1004, 80.3607
1000, 80.7209
996, 81.0545
992, 81.4162
988, 81.7904
984, 82.1293
980, 82.5114
976, 82.8582
972, 83.2173
968, 83.5414
964, 83.9205
960, 84.2541
956, 84.5461
952, 84.8628
948, 85.1598
944, 85.4331
940, 85.697
936, 85.9324
932, 86.181
928, 86.376
924, 86.5425
920, 86.7083
916, 86.8288
912, 86.9304
908, 86.9908
904, 87.0114
900, 87.0153
896, 86.9768
892, 86.9042
888, 86.7727
884, 86.6209
880, 86.4203
876, 86.1987
872, 85.913
868, 85.6271
864, 85.2622
860, 84.833
856, 84.833
852, 84.833
848, 84.833
844, 84.833
840, 84.833
836, 84.833
832, 84.833
828, 84.833
824, 84.833
820, 84.833
816, 84.833
812, 81.4045
808, 78.9096
804, 78.312
800, 77.5053
796, 76.7449
792, 76.2296
788, 75.5661
784, 75.0354
780, 74.726
776, 74.0563
772, 73.7497
768, 73.2631
764, 72.8695
760, 72.407
756, 72.1604
752, 71.7977
748, 71.5831
744, 71.3745
740, 71.178
736, 71.0366
732, 71.0498
728, 71.2148
724, 71.3334
720, 71.5085
716, 71.827
712, 72.2713
708, 72.7868
704, 73.3966
700, 73.9875
696, 74.6598
692, 75.4955
688, 76.2085
684, 77.0133
680, 77.7204
676, 78.3936
672, 78.7191
668, 78.5326
664, 77.7236
660, 75.7837
656, 72.253
652, 66.5346
648, 58.4837
644, 48.6
640, 38.0613
636, 28.5396
632, 21.2969
628, 16.6851
624, 14.1872
620, 13.0388
616, 12.6409
612, 12.5499
608, 12.5268
604, 12.4986
600, 12.406
596, 12.2574
592, 12.0268
588, 11.7556
584, 11.4047
580, 11.0456
576, 10.671
572, 10.2464
568, 9.810441
564, 9.363599
560, 8.866568
556, 8.391146
552, 7.901409
548, 7.401477
544, 6.910635
540, 6.420058
536, 5.921308
532, 5.432547
528, 4.943739
524, 4.482341
520, 4.038977
516, 3.593046
512, 3.177476
508, 2.800676
504, 2.422304
500, 2.100185
496, 1.778332
492, 1.504559
488, 1.242855
484, 1.028141
480, 0.839358
476, 0.696272
472, 0.557451
468, 0.420144
464, 0.351008
460, 0.281980
456, 0.203223
452, 0.159049
448, 0.107349
444, 0.128980
440, 0.096912
436, 0.068302
432, 0.040734
428, 0.045675
424, 0.036625
420, 0.020776
416, 0.078296
412, 0.019403
408, 0.018803
404, 0.071864
400, -0.013535
396, -0.023908
392, 0.057308
388, -0.002573
384, 0.016980
380, 0.012174
376, 0.012174
372, 0.012174
368, 0.012174
364, 0.012174
360, 0.012174
356, 0.012174
352, 0.012174
348, 0.012174
344, 0.012174
340, 0.012174
336, 0.012174
332, 0.012174
328, 0.012174
324, 0.012174
320, 0.012174
316, 0.012174
312, 0.012174
308, 0.012174
304, 0.012174
300, 0.012174

File: 8-3FAPbI3-7MAPbBr3.Sample.Raw.csv
nm, %T
1200, 75.707
1196, 75.5818
1192, 75.4577
1188, 75.2924
1184, 75.178
1180, 75.0629
1176, 74.9538
1172, 74.8209
1168, 74.7133
1164, 74.6191
1160, 74.4852
1156, 74.4202
1152, 74.3126
1148, 74.2614
1144, 74.1924
1140, 74.1359
1136, 74.0584
1132, 74.003
1128, 73.9771
1124, 73.9217
1120, 73.9045
1116, 73.8798
1112, 73.8748
1108, 73.8738
1104, 73.8843
1100, 73.8731
1096, 73.9171
1092, 73.9318
1088, 73.9614
1084, 74.0134
1080, 74.0754
1076, 74.1398
1072, 74.2317
1068, 74.3172
1064, 74.4371
1060, 74.5387
1056, 74.6528
1052, 74.7907
1048, 74.9288
1044, 75.086
1040, 75.2494
1036, 75.4205
1032, 75.6165
1028, 75.8181
1024, 76.0513
1020, 76.2485
1016, 76.4861
1012, 76.7487
1008, 76.9803
1004, 77.2583
1000, 77.5307
996, 77.8361
992, 78.1475
988, 78.4461
984, 78.7629
980, 79.0832
976, 79.4419
972, 79.799
968, 80.1422
964, 80.5137
960, 80.8707
956, 81.2599
952, 81.6517
948, 82.0358
944, 82.4259
940, 82.8151
936, 83.2189
932, 83.599
928, 83.9903
924, 84.3359
920, 84.712
916, 85.0821
912, 85.4181
908, 85.7552
904, 86.0627
900, 86.3659
896, 86.6372
892, 86.8886
888, 87.1042
884, 87.3102
880, 87.5083
876, 87.6293
872, 87.7278
868, 87.7662
864, 87.7527
860, 87.7347
856, 87.7347
852, 87.7347
848, 87.7347
844, 87.7347
840, 87.7347
836, 87.7347
832, 87.7347
828, 87.7347
824, 87.7347
820, 87.7347
816, 87.7347
812, 87.7347
808, 87.7347
804, 87.7347
800, 87.7347
796, 87.7347
792, 87.7347
788, 87.7347
784, 87.7347
780, 87.7347
776, 87.7347
772, 87.7347
768, 87.7347
764, 87.7347
760, 87.7347
756, 87.7347
752, 87.7347
748, 87.7347
744, 87.7347
740, 87.7347
736, 87.7347
732, 87.7347
728, 87.7347
724, 87.7347
720, 87.7347
716, 87.7347
712, 87.7347
708, 87.7347
704, 87.7347
700, 87.7347
696, 87.7347
692, 87.7347
688, 87.7347
684, 87.7347
680, 87.7347
676, 87.7347
672, 87.7347
668, 87.7347
664, 89.4583
660, 89.5316
656, 89.5018
652, 89.6037
648, 89.6626
644, 89.6566
640, 89.8278
636, 89.819
632, 89.8155
628, 80.2945
624, 70.4993
620, 62.1586
616, 51.5299
612, 39.6317
608, 28.3767
604, 19.7995
600, 14.3722
596, 11.9146
592, 10.7751
588, 10.8258
584, 10.733
580, 8.738415
576, 10.6079
572, 10.9705
568, 10.5558
564, 11.0674
560, 10.4399
556, 9.738025
552, 9.362637
548, 9.003360
544, 8.620331
540, 8.214108
536, 7.821735
532, 7.407593
528, 7.158583
524, 6.763247
520, 6.538673
516, 5.848256
512, 5.944727
508, 5.682661
504, 5.227206
500, 4.541688
496, 3.010596
492, 1.135902
488, 0.145836
484, 0.736641
480, 1.786448
476, 1.793047
472, 1.868815
468, 1.953828
464, 2.056742
460, 2.199773
456, 2.649553
452, 3.224697
448, 4.807121
444, 4.539737
440, 4.177901
436, 3.943477
432, 3.789404
428, 3.612004
424, 3.450009
420, 3.450073
416, 3.450073
412, 3.450073
408, 3.450073
404, 3.450073
400, 3.450073
396, 3.450073
392, 3.450073
388, 3.450073
384, 3.450073
380, 3.450073
376, 3.450073
372, 3.450073
368, 3.450073
364, 3.450073
360, 3.450073
356, 3.450073
352, 3.450073
348, 3.450073
344, 3.450073
340, 3.450073
336, 3.450073
332, 3.450073
328, 3.450073
324, 3.450073
320, 3.450073
316, 3.450073
312, 3.450073
308, 3.450073
304, 3.450073
300, 3.450073

File: 9-2FAPbI3-8MAPbBr3.Sample.Raw.csv
nm, %T
1200, 77.7705
1196, 77.679
1192, 77.516
1188, 77.3462
1184, 77.2133
1180, 77.0943
1176, 76.9655
1172, 76.8294
1168, 76.7042
1164, 76.6174
1160, 76.4843
1156, 76.4
1152, 76.2949
1148, 76.2242
1144, 76.1377
1140, 76.0629
1136, 75.9725
1132, 75.8901
1128, 75.8628
1124, 75.7931
1120, 75.7661
1116, 75.7239
1112, 75.6919
1108, 75.6838
1104, 75.6483
1100, 75.6422
1096, 75.6557
1092, 75.6592
1088, 75.6671
1084, 75.6696
1080, 75.7133
1076, 75.7725
1072, 75.8194
1068, 75.8763
1064, 75.9531
1060, 76.0235
1056, 76.1065
1052, 76.2184
1048, 76.3137
1044, 76.4405
1040, 76.5611
1036, 76.7008
1032, 76.848
1028, 77.0274
1024, 77.2102
1020, 77.3603
1016, 77.5641
1012, 77.7581
1008, 77.9675
1004, 78.2001
1000, 78.4236
996, 78.6718
992, 78.9148
988, 79.18
984, 79.4372
980, 79.7328
976, 80.0248
972, 80.3235
968, 80.6203
964, 80.9421
960, 81.2599
956, 81.6095
952, 81.9342
948, 82.2968
944, 82.6254
940, 82.9827
936, 83.3222
932, 83.6718
928, 84.0192
924, 84.3609
920, 84.7231
916, 85.0807
912, 85.3971
908, 85.7213
904, 86.0501
900, 86.3591
896, 86.6667
892, 86.9291
888, 87.1909
884, 87.4466
880, 87.6909
876, 87.886
872, 88.0474
868, 88.1718
864, 88.2553
860, 88.3271
856, 88.3271
852, 88.3271
848, 88.3271
844, 88.3271
840, 88.3271
836, 88.3271
832, 88.3271
828, 88.3271
824, 88.3271
820, 88.3271
816, 88.3271
812, 88.3271
808, 88.3271
804, 88.3271
800, 88.3271
796, 88.3271
792, 88.3271
788, 88.3271
784, 88.3271
780, 88.3271
776, 88.3271
772, 88.3271
768, 88.3271
764, 88.3271
760, 88.3271
756, 88.3271
752, 88.3271
748, 88.3271
744, 88.3271
740, 88.3271
736, 88.3271
732, 88.3271
728, 88.3271
724, 88.3271
720, 88.3271
716, 88.3271
712, 88.3271
708, 88.3271
704, 88.3271
700, 88.3271
696, 88.3271
692, 88.3271
688, 88.3271
684, 88.3271
680, 88.3271
676, 88.3271
672, 88.3271
668, 88.3271
664, 90.0593
660, 90.1317
656, 90.1014
652, 90.2045
648, 90.2637
644, 90.2576
640, 90.4299
636, 90.4212
632, 90.418
628, 81.7106
624, 83.5828
620, 83.5164
616, 82.5937
612, 80.8619
608, 77.3697
604, 71.4055
600, 61.9748
596, 49.2755
592, 34.9552
588, 22.8226
584, 15.072
580, 9.106772
576, 9.958597
572, 10.0846
568, 10.3897
564, 10.8625
560, 10.9635
556, 10.6739
552, 10.5516
548, 10.3394
544, 10.1201
540, 9.804956
536, 9.497551
532, 9.138873
528, 8.814648
524, 8.502808
520, 8.251931
516, 8.100265
512, 7.881525
508, 7.608876
504, 7.060714
500, 6.072531
496, 4.203924
492, 2.148156
488, 0.713629
484, 1.794477
480, 3.011558
476, 2.971268
472, 2.985777
468, 3.001221
464, 2.982009
460, 3.123991
456, 3.569130
452, 4.137751
448, 5.707101
444, 5.440434
440, 5.081816
436, 4.850057
432, 4.696866
428, 4.521225
424, 4.360675
420, 4.360756
416, 4.360756
412, 4.360756
408, 4.360756
404, 4.360756
400, 4.360756
396, 4.360756
392, 4.360756
388, 4.360756
384, 4.360756
380, 4.360756
376, 4.360756
372, 4.360756
368, 4.360756
364, 4.360756
360, 4.360756
356, 4.360756
352, 4.360756
348, 4.360756
344, 4.360756
340, 4.360756
336, 4.360756
332, 4.360756
328, 4.360756
324, 4.360756
320, 4.360756
316, 4.360756
312, 4.360756
308, 4.360756
304, 4.360756
300, 4.360756