Folder: campaign1/UV-Vis data/Transmission (part 3)

File: 24-Ca 5%.Sample.Raw.csv
nm, %T
1200, 64.1548
1195, 63.9756
1190, 63.8254
1185, 63.656
1180, 63.5289
1175, 63.357
1170, 63.1909
1165, 63.0751
1160, 62.9583
1155, 62.8132
1150, 62.6856
1145, 62.5671
1140, 62.462
1135, 62.3264
1130, 62.2265
1125, 62.0798
1120, 62.0047
1115, 61.8915
1110, 61.7701
1105, 61.663
1100, 61.5937
1095, 61.4751
1090, 61.3991
1085, 61.3059
1080, 61.2393
1075, 61.1521
1070, 61.0742
1065, 60.9948
1060, 60.9186
1055, 60.8618
1050, 60.7945
1045, 60.7015
1040, 60.6308
1035, 60.5535
1030, 60.4844
1025, 60.3788
1020, 60.301
1015, 60.1889
1010, 60.0803
1005, 59.9163
1000, 59.7649
995, 59.5402
990, 59.2686
985, 58.9318
980, 58.5438
975, 58.0698
970, 57.4826
965, 56.8096
960, 56.0314
955, 55.1176
950, 54.0804
945, 52.964
940, 51.7855
935, 50.5199
930, 49.2174
925, 47.8649
920, 46.5086
915, 45.1519
910, 43.7683
905, 42.4284
900, 41.1143
895, 39.8159
890, 38.5604
885, 37.3159
880, 36.1261
875, 34.9748
870, 33.8558
865, 32.7885
860, 31.7798
855, 30.771
850, 29.3846
845, 27.7495
840, 25.9947
835, 24.2488
830, 22.6408
825, 21.2994
820, 20.3535
815, 20.4965
810, 20.2937
805, 19.9333
800, 19.4264
795, 18.639
790, 18.0757
785, 17.5671
780, 17.0598
775, 16.5339
770, 16.0091
765, 15.4765
760, 14.9542
755, 14.4494
750, 13.9002
745, 13.3492
740, 12.7794
735, 12.2538
730, 11.7091
725, 11.1734
720, 10.6264
715, 10.1366
710, 9.636053
705, 9.222312
700, 8.787217
695, 8.332105
690, 8.022650
685, 7.635364
680, 7.360953
675, 7.141085
670, 6.914471
665, 6.687056
660, 6.510095
655, 6.378791
650, 6.243830
645, 6.133112
640, 6.041153
635, 5.966386
630, 5.904115
625, 5.843775
620, 5.799916
615, 5.786309
610, 5.751909
605, 5.722836
600, 5.713344
595, 5.707954
590, 5.710676
585, 5.698253
580, 5.708810
575, 5.707800
570, 5.693531
565, 5.699373
560, 5.696376
555, 5.707788
550, 5.705394
545, 5.699585
540, 5.687450
535, 5.680708
530, 5.661245
525, 5.632780
520, 5.607185
515, 5.575240
510, 5.532762
505, 5.496498
500, 5.489699
495, 5.504706
490, 5.506241
485, 5.511261
480, 5.436612
475, 5.388734
470, 5.334879
465, 5.313571
460, 5.315774
455, 5.294172
450, 5.301800
445, 5.343193
440, 5.288656
435, 5.262354
430, 5.291748
425, 5.336600
420, 5.315839
415, 5.325006
410, 5.375152
405, 5.421702
400, 5.464516
395, 5.510611
390, 5.563435
385, 5.595884
380, 5.621892
375, 5.752531
370, 5.545329
365, 5.005950
360, 5.822737
355, 5.774411
350, 5.729306
345, 5.729306
340, 5.729306
335, 5.729306
330, 5.729306
325, 5.729306
320, 5.729306
315, 5.729306
310, 5.729306
305, 5.729306
300, 5.729306

File: 25-Ca 10% .Sample.Raw.csv
nm, %T
1200, 64.38
1195, 64.1617
1190, 64.0088
1185, 63.8214
1180, 63.6953
1175, 63.4865
1170, 63.3427
1165, 63.1912
1160, 63.0857
1155, 62.9378
1150, 62.7876
1145, 62.6832
1140, 62.5687
1135, 62.4669
1130, 62.359
1125, 62.2621
1120, 62.1895
1115, 62.0822
1110, 62.0189
1105, 61.9406
1100, 61.8847
1095, 61.8334
1090, 61.8078
1085, 61.7449
1080, 61.71
1075, 61.6872
1070, 61.663
1065, 61.6192
1060, 61.6223
1055, 61.6037
1050, 61.6036
1045, 61.5745
1040, 61.5889
1035, 61.5533
1030, 61.5479
1025, 61.5132
1020, 61.4972
1015, 61.4665
1010, 61.4309
1005, 61.3498
1000, 61.2851
995, 61.1492
990, 60.993
985, 60.7847
980, 60.5357
975, 60.1936
970, 59.802
965, 59.3122
960, 58.7294
955, 58.0089
950, 57.1751
945, 56.2632
940, 55.2278
935, 54.1095
930, 52.9084
925, 51.6262
920, 50.3094
915, 48.9374
910, 47.5189
905, 46.104
900, 44.6868
895, 43.2376
890, 41.794
885, 40.3762
880, 38.953
875, 37.5617
870, 36.1898
865, 34.8387
860, 33.5236
855, 32.4366
850, 30.9544
845, 29.2121
840, 27.3449
835, 25.4879
830, 23.7762
825, 22.345
820, 21.3294
815, 21.3197
810, 21.0114
805, 20.5791
800, 19.8358
795, 18.9571
790, 18.2475
785, 17.6111
780, 16.8874
775, 16.2959
770, 15.6887
765, 15.2518
760, 14.6539
755, 14.1485
750, 13.6567
745, 13.1369
740, 12.6305
735, 12.1603
730, 11.6943
725, 11.2469
720, 10.8588
715, 10.4683
710, 10.0356
705, 9.692952
700, 9.330468
695, 9.009659
690, 8.757855
685, 8.445396
680, 8.229605
675, 8.069401
670, 7.924099
665, 7.763711
660, 7.672257
655, 7.604110
650, 7.546907
645, 7.483086
640, 7.438114
635, 7.443014
630, 7.440803
625, 7.449669
620, 7.466980
615, 7.496782
610, 7.714758
605, 8.035650
600, 7.674756
595, 7.862172
590, 8.250048
585, 7.547978
580, 7.086259
575, 7.622284
570, 7.972395
565, 7.880129
560, 7.910157
555, 7.934235
550, 7.940858
545, 7.936704
540, 7.934097
535, 7.914232
530, 7.885328
525, 7.849595
520, 7.810340
515, 7.757363
510, 7.691551
505, 7.619898
500, 7.573670
495, 7.532917
490, 7.497617
485, 7.445540
480, 7.375705
475, 7.322805
470, 7.265013
465, 7.214231
460, 7.190009
455, 7.151107
450, 7.152835
445, 7.157176
440, 7.101072
435, 7.085889
430, 7.119226
425, 7.152771
420, 7.167861
415, 7.207994
410, 7.293705
405, 7.365511
400, 7.482268
395, 7.577999
390, 7.663183
385, 7.755023
380, 7.878765
375, 8.068966
370, 7.892490
365, 7.428167
360, 8.119362
355, 8.092824
350, 8.257690
345, 8.257690
340, 8.257690
335, 8.257690
330, 8.257690
325, 8.257690
320, 8.257690
315, 8.257690
310, 8.257690
305, 8.257690
300, 8.257690

File: 26-Sample277.Sample.Raw.csv
nm, %T
1100, 72.9159
1095, 72.8521
1090, 72.8589
1085, 72.7893
1080, 72.775
1075, 72.7344
1070, 72.6641
1065, 72.6503
1060, 72.5952
1055, 72.5627
1050, 72.5035
1045, 72.4363
1040, 72.3734
1035, 72.3088
1030, 72.2081
1025, 72.0873
1020, 71.9606
1015, 71.7944
1010, 71.6085
1005, 71.3412
1000, 71.0474
995, 70.7007
990, 70.2796
985, 69.801
980, 69.2396
975, 68.6506
970, 68.001
965, 67.2613
960, 66.4733
955, 65.6462
950, 64.8036
945, 63.8845
940, 63.0106
935, 62.0846
930, 61.2087
925, 60.2652
920, 59.3617
915, 58.4947
910, 57.6607
905, 56.8373
900, 56.027
895, 55.2399
890, 54.4566
885, 53.7109
880, 52.9494
875, 52.1609
870, 51.408
865, 50.6922
860, 49.9658
855, 49.4314
850, 49.2871
845, 48.0698
840, 47.8447
835, 47.4184
830, 46.9236
825, 46.225
820, 45.6076
815, 44.836
810, 44.2648
805, 43.7315
800, 43.0481
795, 42.5767
790, 41.921
785, 41.515
780, 40.9386
775, 40.3365
770, 39.8684
765, 39.2677
760, 38.7437
755, 38.1638
750, 37.6533
745, 37.0659
740, 36.5755
735, 36.016
730, 35.5
725, 34.9855
720, 34.4375
715, 33.9084
710, 33.3769
705, 32.8907
700, 32.3311
695, 31.8238
690, 31.2612
685, 30.6751
680, 30.172
675, 29.599
670, 29.0756
665, 28.5651
660, 28.0574
655, 27.4876
650, 27.0033
645, 26.5276
640, 26.0416
635, 25.5827
630, 25.1303
625, 24.7491
620, 24.3784
615, 24.0399
610, 23.7284
605, 23.4167
600, 23.1065
595, 22.8661
590, 22.6113
585, 22.4054
580, 22.197
575, 22.0149
570, 21.8469
565, 21.6966
560, 21.5717
555, 21.4572
550, 21.3491
545, 21.2605
540, 21.1782
535, 21.1116
530, 21.0447
525, 20.9613
520, 20.9014
515, 20.8753
510, 20.8115
505, 20.7636
500, 20.7206
495, 20.6988
490, 20.6814
485, 20.6645
480, 20.6394
475, 20.6027
470, 20.5554
465, 20.5309
460, 20.5129
455, 20.515
450, 20.474
445, 20.4495
440, 20.4801
435, 20.4651
430, 20.4463
425, 20.4516
420, 20.414
415, 20.4155
410, 20.4149
405, 20.388
400, 20.383
395, 20.3676
390, 20.3531
385, 20.3379
380, 20.3373
375, 20.37
370, 20.3822
365, 20.3115
360, 20.2438
355, 20.1192
350, 20.0771
345, 19.9572
340, 19.6423
335, 19.0946
330, 18.3642
325, 17.8102
320, 16.5935
315, 15.2978
310, 13.5492
305, 11.2869
300, 9.166802

File: 27-Sample278.Sample.Raw.csv
nm, %T
1100, 68.976
1095, 69.0274
1090, 69.1519
1085, 69.2713
1080, 69.4452
1075, 69.6576
1070, 69.8336
1065, 70.1182
1060, 70.3701
1055, 70.6664
1050, 71.0058
1045, 71.3204
1040, 71.6932
1035, 72.0335
1030, 72.3932
1025, 72.7284
1020, 73.0762
1015, 73.3826
1010, 73.6818
1005, 73.9024
1000, 74.0859
995, 74.2109
990, 74.2202
985, 74.1472
980, 73.9298
975, 73.5712
970, 73.0794
965, 72.3279
960, 71.4058
955, 70.2446
950, 68.8717
945, 67.2331
940, 65.3572
935, 63.3068
930, 61.0386
925, 58.62
920, 56.1142
915, 53.5611
910, 51.0731
905, 48.5659
900, 46.1721
895, 43.8839
890, 41.7384
885, 39.7632
880, 37.8725
875, 36.1713
870, 34.592
865, 33.1534
860, 31.8047
855, 30.8177
850, 30.4384
845, 28.4135
840, 27.9411
835, 27.4224
830, 26.6127
825, 25.6569
820, 24.8167
815, 23.9624
810, 23.1778
805, 22.4514
800, 21.6796
795, 21.0118
790, 20.2547
785, 19.536
780, 18.8468
775, 18.0995
770, 17.4468
765, 16.7092
760, 15.9699
755, 15.2871
750, 14.5715
745, 13.8815
740, 13.2019
735, 12.4812
730, 11.7874
725, 11.1115
720, 10.4358
715, 9.755150
710, 9.085299
705, 8.424531
700, 7.792465
695, 7.155717
690, 6.545101
685, 5.957287
680, 5.351008
675, 4.772723
670, 4.236099
665, 3.732620
660, 3.226865
655, 2.751531
650, 2.333226
645, 1.934843
640, 1.583712
635, 1.268796
630, 0.988757
625, 0.776065
620, 0.586019
615, 0.424704
610, 0.310700
605, 0.217155
600, 0.156358
595, 0.107258
590, 0.074445
585, 0.058801
580, 0.038521
575, 0.024687
570, 0.023771
565, 0.020893
560, 0.009420
555, 0.008403
550, 0.005330
545, 0.003587
540, 0.004714
535, -0.000205
530, -0.000820
525, 0.001947
520, 0.002254
515, -0.000103
510, -0.001640
505, -0.003897
500, -0.001231
495, 0.004719
490, 0.001128
485, 0.004923
480, 0.005019
475, 0.005117
470, 0.008587
465, -0.004499
460, -0.025882
455, 0.004194
450, -0.011047
445, 0.004192
440, 0.005828
435, 0.009102
430, 0.013805
425, -0.007975
420, -0.024356
415, 0.007363
410, 0.006859
405, 0.014543
400, 0.003897
395, -0.021247
390, -0.057366
385, -0.011014
380, 0.011437
375, 0.012067
370, 0.007227
365, -0.211667
360, -0.023084
355, -0.060273
350, -0.030629
345, 0.152513
340, 0.076311
335, -0.095626
330, -0.074262
325, 0.144480
320, 0.202298
315, 0.208783
310, -0.291658
305, -0.232788
300, -0.134964

File: 28-Sample279.Sample.Raw.csv
nm, %T
1100, 73.8563
1095, 73.8546
1090, 73.9092
1085, 73.9271
1080, 73.9829
1075, 74.0309
1070, 74.0165
1065, 74.0565
1060, 74.0604
1055, 74.0627
1050, 74.0612
1045, 74.0945
1040, 74.0989
1035, 74.077
1030, 74.0732
1025, 74.0499
1020, 74.0199
1015, 73.9825
1010, 73.9651
1005, 73.8915
1000, 73.8347
995, 73.7654
990, 73.6624
985, 73.5656
980, 73.448
975, 73.3064
970, 73.166
965, 72.9686
960, 72.745
955, 72.466
950, 72.1316
945, 71.6584
940, 71.1296
935, 70.4396
930, 69.593
925, 68.5252
920, 67.1993
915, 65.5708
910, 63.5746
905, 61.1735
900, 58.3733
895, 55.2264
890, 51.7525
885, 48.1439
880, 44.4644
875, 40.9497
870, 37.7102
865, 34.7972
860, 32.209
855, 30.5142
850, 30.4076
845, 27.4892
840, 26.4601
835, 25.5103
830, 24.5093
825, 23.5404
820, 22.5453
815, 21.6256
810, 20.8486
805, 20.1555
800, 19.5014
795, 18.8279
790, 18.202
785, 17.5915
780, 17.0311
775, 16.474
770, 15.9101
765, 15.3515
760, 14.7466
755, 14.1998
750, 13.6127
745, 13.0612
740, 12.5455
735, 11.9544
730, 11.4159
725, 10.842
720, 10.2724
715, 9.721144
710, 9.147717
705, 8.600080
700, 8.021370
695, 7.468453
690, 6.916921
685, 6.380561
680, 5.852506
675, 5.334721
670, 4.811383
665, 4.337043
660, 3.859501
655, 3.416993
650, 2.991132
645, 2.595683
640, 2.223465
635, 1.884607
630, 1.579926
625, 1.321109
620, 1.073158
615, 0.849510
610, 0.665522
605, 0.514066
600, 0.383369
595, 0.278236
590, 0.201319
585, 0.143827
580, 0.097020
575, 0.063406
570, 0.042932
565, 0.033491
560, 0.021707
555, 0.016908
550, 0.013837
545, 0.011581
540, 0.010146
535, 0.006150
530, 0.007892
525, 0.005841
520, 0.005533
515, 0.005228
510, 0.001845
505, 0.002462
500, 0.008411
495, 0.007079
490, 0.002770
485, 0.006564
480, 0.008195
475, 0.004196
470, -0.001636
465, -0.003170
460, -0.004808
455, 0.008900
450, 0.000102
445, -0.002249
440, 0.008282
435, 0.010432
430, 0.008590
425, 0.004397
420, -0.008699
415, 0.006034
410, 0.003071
405, 0.002970
400, -0.000820
395, 0.010880
390, -0.018711
385, -0.020793
380, -0.004637
375, 0.006910
370, 0.029216
365, -0.013016
360, -0.015217
355, 0.006017
350, 0.005313
345, 0.067958
340, 0.058097
335, -0.075744
330, -0.091797
325, 0.086159
320, 0.060475
315, -0.048338
310, -0.000319
305, -0.278526
300, -0.286473

File: 29-Sample280.Sample.Raw.csv
nm, %T
1100, 70.903
1095, 70.8767
1090, 70.918
1085, 70.8998
1080, 70.9418
1075, 70.9497
1070, 70.9299
1065, 70.9595
1060, 70.9491
1055, 70.9629
1050, 70.9648
1045, 70.9368
1040, 70.9451
1035, 70.9376
1030, 70.9265
1025, 70.9132
1020, 70.9035
1015, 70.8729
1010, 70.8807
1005, 70.8379
1000, 70.8129
995, 70.7801
990, 70.7227
985, 70.6874
980, 70.6326
975, 70.6014
970, 70.5586
965, 70.4672
960, 70.4012
955, 70.344
950, 70.2715
945, 70.1573
940, 70.0726
935, 69.9872
930, 69.8776
925, 69.7604
920, 69.6405
915, 69.4766
910, 69.2992
905, 69.0374
900, 68.7164
895, 68.2757
890, 67.6565
885, 66.9101
880, 65.8521
875, 64.4976
870, 62.7363
865, 60.5736
860, 57.842
855, 55.6677
850, 56.3068
845, 51.9975
840, 48.3653
835, 44.4223
830, 40.1215
825, 35.8074
820, 31.8669
815, 28.3492
810, 25.4837
805, 23.211
800, 21.4488
795, 20.0671
790, 18.9261
785, 18.0308
780, 17.2852
775, 16.6197
770, 16.019
765, 15.4368
760, 14.9076
755, 14.4327
750, 13.9442
745, 13.4565
740, 13.0135
735, 12.5204
730, 12.0518
725, 11.6014
720, 11.1256
715, 10.6552
710, 10.1712
705, 9.714184
700, 9.215904
695, 8.729431
690, 8.260810
685, 7.775884
680, 7.266189
675, 6.771910
670, 6.309216
665, 5.843978
660, 5.377055
655, 4.904247
650, 4.458133
645, 4.027009
640, 3.609239
635, 3.201402
630, 2.818275
625, 2.463944
620, 2.126785
615, 1.819473
610, 1.537836
605, 1.276206
600, 1.048325
595, 0.844644
590, 0.674407
585, 0.531976
580, 0.402524
575, 0.300643
570, 0.221831
565, 0.164689
560, 0.116318
555, 0.075725
550, 0.048069
545, 0.034027
540, 0.025519
535, 0.013632
530, 0.008507
525, 0.006865
520, 0.005533
515, 0.005535
510, 0.000103
505, -0.004308
500, -0.000410
495, 0.002975
490, 0.009950
485, 0.004718
480, 0.005531
475, 0.001535
470, -0.002658
465, -0.004908
460, -0.006650
455, 0.002762
450, -0.007774
445, -0.012064
440, 0.001943
435, 0.002966
430, 0.008385
425, -0.004805
420, -0.011564
415, -0.002250
410, 0.002764
405, 0.002868
400, -0.007896
395, 0.009443
390, 0.008019
385, -0.017293
380, -0.001236
375, -0.014232
370, 0.065039
365, 0.006508
360, 0.016252
355, -0.040978
350, -0.073447
345, 0.025680
340, -0.048990
335, -0.038503
330, -0.119157
325, 0.094732
320, -0.021621
315, -0.041109
310, -0.027772
305, -0.237103
300, -0.005769

File: 30-Sample281.Sample.Raw.csv
nm, %T
1100, 82.2376
1095, 82.1796
1090, 82.1609
1085, 82.0986
1080, 82.0552
1075, 81.9884
1070, 81.8545
1065, 81.7881
1060, 81.6558
1055, 81.5392
1050, 81.4112
1045, 81.2509
1040, 81.1132
1035, 80.938
1030, 80.7969
1025, 80.6079
1020, 80.4285
1015, 80.2522
1010, 80.0716
1005, 79.8574
1000, 79.6587
995, 79.4904
990, 79.294
985, 79.1026
980, 78.9226
975, 78.7574
970, 78.5936
965, 78.4363
960, 78.3002
955, 78.1736
950, 78.0435
945, 77.9257
940, 77.8556
935, 77.7587
930, 77.7182
925, 77.6546
920, 77.6073
915, 77.5718
910, 77.5494
905, 77.5125
900, 77.4905
895, 77.4626
890, 77.4267
885, 77.4198
880, 77.3586
875, 77.2984
870, 77.2138
865, 77.1437
860, 77.0047
855, 76.9106
850, 77.1827
845, 76.7404
840, 76.4115
835, 75.9278
830, 75.5102
825, 74.8174
820, 73.8401
815, 72.4202
810, 70.5518
805, 68.094
800, 65.1421
795, 61.552
790, 57.3381
785, 53.0262
780, 48.3898
775, 43.9461
770, 40.1464
765, 36.6485
760, 33.7406
755, 31.3513
750, 29.3479
745, 27.7823
740, 26.4338
735, 25.3204
730, 24.3531
725, 23.4314
720, 22.593
715, 21.8467
710, 21.1077
705, 20.4325
700, 19.6919
695, 18.9809
690, 18.2886
685, 17.5828
680, 16.875
675, 16.181
670, 15.4861
665, 14.7983
660, 14.0655
655, 13.3289
650, 12.6085
645, 11.8786
640, 11.1215
635, 10.4005
630, 9.669358
625, 8.949583
620, 8.220930
615, 7.512247
610, 6.817789
605, 6.139305
600, 5.479692
595, 4.851401
590, 4.257799
585, 3.695865
580, 3.173782
575, 2.698412
570, 2.266777
565, 1.879072
560, 1.535580
555, 1.232200
550, 0.976963
545, 0.763753
540, 0.586938
535, 0.440111
530, 0.323972
525, 0.234747
520, 0.167733
515, 0.114092
510, 0.076175
505, 0.045640
500, 0.033130
495, 0.025444
490, 0.017849
485, 0.015691
480, 0.009834
475, 0.002763
470, 0.001227
465, -0.004601
460, -0.006547
455, -0.001432
450, 0.001125
445, 0.003067
440, 0.003579
435, 0.001330
430, 0.005215
425, -0.009713
420, -0.010541
415, 0.000000
410, -0.005835
405, -0.010344
400, -0.018970
395, -0.010777
390, -0.014084
385, -0.020072
380, -0.009480
375, -0.004228
370, 0.051205
365, 0.022313
360, -0.001242
355, -0.030915
350, -0.023441
345, -0.020669
340, -0.022820
335, -0.098887
330, -0.127713
325, -0.102776
320, -0.173399
315, -0.212560
310, -0.100234
305, -0.413151
300, -0.029605

File: 31-Sample282.Sample.Raw.csv
nm, %T
1100, 76.7109
1095, 76.5528
1090, 76.4377
1085, 76.3105
1080, 76.2161
1075, 76.1285
1070, 75.9666
1065, 75.8924
1060, 75.7915
1055, 75.7021
1050, 75.6188
1045, 75.5297
1040, 75.4737
1035, 75.3997
1030, 75.3555
1025, 75.3174
1020, 75.267
1015, 75.2554
1010, 75.2362
1005, 75.2049
1000, 75.2007
995, 75.2045
990, 75.2005
985, 75.2348
980, 75.2565
975, 75.2631
970, 75.3333
965, 75.3514
960, 75.3906
955, 75.4321
950, 75.4882
945, 75.5244
940, 75.5673
935, 75.612
930, 75.6761
925, 75.7269
920, 75.7748
915, 75.7907
910, 75.8676
905, 75.8503
900, 75.9003
895, 75.9139
890, 75.8931
885, 75.9237
880, 75.8563
875, 75.8084
870, 75.7345
865, 75.6193
860, 75.485
855, 75.4087
850, 75.558
845, 75.1526
840, 75.3368
835, 75.1283
830, 75.1211
825, 74.932
820, 74.8046
815, 74.1966
810, 73.8552
805, 73.2312
800, 72.7754
795, 72.0826
790, 70.9556
785, 69.7918
780, 68.3211
775, 66.4267
770, 64.1716
765, 61.4146
760, 58.2151
755, 54.4425
750, 50.3646
745, 45.8815
740, 41.3779
735, 36.9733
730, 32.8926
725, 29.1683
720, 26.0044
715, 23.4251
710, 21.3302
705, 19.6682
700, 18.3194
695, 17.233
690, 16.3596
685, 15.5787
680, 14.9014
675, 14.2739
670, 13.6914
665, 13.1581
660, 12.6102
655, 12.0449
650, 11.4982
645, 10.9403
640, 10.3733
635, 9.811621
630, 9.257563
625, 8.688306
620, 8.109780
615, 7.539265
610, 6.973292
605, 6.418401
600, 5.863982
595, 5.325406
590, 4.793147
585, 4.282340
580, 3.789298
575, 3.313526
570, 2.877249
565, 2.472076
560, 2.090138
555, 1.742397
550, 1.431519
545, 1.159056
540, 0.925347
535, 0.725045
530, 0.555599
525, 0.417852
520, 0.307904
515, 0.225109
510, 0.153376
505, 0.101435
500, 0.073236
495, 0.045142
490, 0.033852
485, 0.021639
480, 0.012702
475, 0.005220
470, 0.005316
465, 0.001125
460, -0.009923
455, 0.000921
450, -0.004807
445, -0.009713
440, 0.006442
435, -0.003375
430, 0.000409
425, -0.007771
420, -0.013611
415, -0.001125
410, -0.002662
405, 0.002356
400, -0.009844
395, -0.011701
390, -0.014701
385, -0.030159
380, -0.004534
375, -0.007632
370, 0.017860
365, -0.004855
360, 0.001242
355, -0.001037
350, 0.061675
345, 0.046036
340, 0.037266
335, -0.077848
330, -0.041726
325, 0.208093
320, 0.119667
315, 0.189685
310, -0.152798
305, -0.256952
300, -0.148352

File: 32-Sample283.Sample.Raw.csv
nm, %T
1100, 68.857
1095, 68.7713
1090, 68.7303
1085, 68.6669
1080, 68.6289
1075, 68.5884
1070, 68.4575
1065, 68.42
1060, 68.3477
1055, 68.2862
1050, 68.1985
1045, 68.118
1040, 68.0524
1035, 67.9646
1030, 67.8864
1025, 67.8147
1020, 67.7453
1015, 67.6674
1010, 67.6035
1005, 67.5098
1000, 67.4275
995, 67.3885
990, 67.285
985, 67.214
980, 67.1442
975, 67.1096
970, 67.0542
965, 66.9678
960, 66.9151
955, 66.853
950, 66.7814
945, 66.7228
940, 66.652
935, 66.5923
930, 66.5308
925, 66.4453
920, 66.3982
915, 66.3284
910, 66.2717
905, 66.163
900, 66.1016
895, 66.0107
890, 65.9156
885, 65.8721
880, 65.7388
875, 65.6736
870, 65.597
865, 65.5124
860, 65.4498
855, 65.4018
850, 65.3449
845, 64.7436
840, 64.8726
835, 65.0993
830, 65.1047
825, 65.0439
820, 64.9744
815, 64.8607
810, 64.8693
805, 64.7188
800, 64.7354
795, 64.804
790, 64.5146
785, 64.4444
780, 64.5556
775, 64.3487
770, 64.2629
765, 64.2048
760, 64.0516
755, 63.8508
750, 63.7353
745, 63.5206
740, 63.2706
735, 63.0046
730, 62.6078
725, 62.1163
720, 61.4124
715, 60.3566
710, 59.0022
705, 57.4868
700, 55.3213
695, 52.9502
690, 50.2352
685, 47.2547
680, 44.2004
675, 40.9905
670, 37.8365
665, 34.6766
660, 31.5123
655, 28.3629
650, 25.2989
645, 22.3309
640, 19.5068
635, 16.895
630, 14.5474
625, 12.5067
620, 10.7919
615, 9.414205
610, 8.335253
605, 7.519532
600, 6.876673
595, 6.389790
590, 5.989795
585, 5.673181
580, 5.383207
575, 5.114413
570, 4.865226
565, 4.622659
560, 4.385676
555, 4.155254
550, 3.926299
545, 3.704899
540, 3.488935
535, 3.275820
530, 3.066609
525, 2.879881
520, 2.691313
515, 2.516891
510, 2.341036
505, 2.186535
500, 2.048750
495, 1.913496
490, 1.799600
485, 1.690521
480, 1.595529
475, 1.511048
470, 1.431022
465, 1.369125
460, 1.307514
455, 1.267939
450, 1.231536
445, 1.182609
440, 1.180971
435, 1.151397
430, 1.151446
425, 1.128265
420, 1.110979
415, 1.111355
410, 1.106912
405, 1.116760
400, 1.115664
395, 1.103797
390, 1.120179
385, 1.118886
380, 1.129723
375, 1.133120
370, 1.191962
365, 1.156370
360, 1.175634
355, 1.198311
350, 1.181508
345, 1.186388
340, 1.113362
335, 1.104173
330, 1.048961
325, 1.109476
320, 1.141863
315, 0.721516
310, 0.751117
305, 0.511099
300, 0.430471

File: 33-Sample284.Sample.Raw.csv
nm, %T
1100, 67.3427
1095, 67.3132
1090, 67.3336
1085, 67.3075
1080, 67.3234
1075, 67.3055
1070, 67.2555
1065, 67.2501
1060, 67.1985
1055, 67.1747
1050, 67.1316
1045, 67.0658
1040, 67.0271
1035, 66.9862
1030, 66.9355
1025, 66.8838
1020, 66.8304
1015, 66.7971
1010, 66.7654
1005, 66.716
1000, 66.6818
995, 66.6551
990, 66.6214
985, 66.5904
980, 66.5763
975, 66.5686
970, 66.5546
965, 66.4982
960, 66.4591
955, 66.3986
950, 66.3518
945, 66.2829
940, 66.2231
935, 66.1279
930, 66.0771
925, 65.9916
920, 65.9324
915, 65.8597
910, 65.8094
905, 65.7375
900, 65.683
895, 65.6302
890, 65.5763
885, 65.5452
880, 65.4998
875, 65.4603
870, 65.4101
865, 65.3674
860, 65.2997
855, 65.2394
850, 65.237
845, 64.491
840, 64.5046
835, 64.7154
830, 64.9024
825, 64.6757
820, 64.6433
815, 64.5593
810, 64.5917
805, 64.43
800, 64.3517
795, 64.4005
790, 64.3398
785, 64.2282
780, 64.1793
775, 64.0077
770, 64.005
765, 63.7553
760, 63.6572
755, 63.5462
750, 63.3238
745, 63.0961
740, 62.8249
735, 62.4896
730, 62.0017
725, 61.3946
720, 60.5109
715, 59.2562
710, 57.7004
705, 55.8243
700, 53.4704
695, 50.8639
690, 47.9362
685, 44.8636
680, 41.641
675, 38.3202
670, 35.0315
665, 31.7465
660, 28.4876
655, 25.2932
650, 22.2761
645, 19.4223
640, 16.7635
635, 14.3914
630, 12.2757
625, 10.5127
620, 9.119438
615, 8.045021
610, 7.253178
605, 6.681833
600, 6.268546
595, 5.965061
590, 5.734614
585, 5.554861
580, 5.377470
575, 5.229754
570, 5.088594
565, 4.945687
560, 4.813267
555, 4.674161
550, 4.535005
545, 4.398140
540, 4.256248
535, 4.123653
530, 3.985639
525, 3.853606
520, 3.717180
515, 3.586259
510, 3.458652
505, 3.325494
500, 3.203185
495, 3.077742
490, 2.958881
485, 2.842935
480, 2.736144
475, 2.629597
470, 2.529001
465, 2.443588
460, 2.350374
455, 2.274699
450, 2.209809
445, 2.124340
440, 2.079531
435, 2.034325
430, 1.999589
425, 1.945811
420, 1.901436
415, 1.885326
410, 1.861675
405, 1.840647
400, 1.828746
395, 1.813352
390, 1.783691
385, 1.775498
380, 1.776708
375, 1.772130
370, 1.760482
365, 1.742406
360, 1.826648
355, 1.930722
350, 1.902123
345, 1.871810
340, 1.629113
335, 1.560107
330, 1.775100
325, 1.695545
320, 1.731097
315, 1.432243
310, 1.056608
305, 0.867293
300, 0.739474

File: 34-Sample285.Sample.Raw.csv
nm, %T
1100, 76.3445
1095, 76.325
1090, 76.3744
1085, 76.4015
1080, 76.4287
1075, 76.4674
1070, 76.4526
1065, 76.4916
1060, 76.4777
1055, 76.4581
1050, 76.4533
1045, 76.4266
1040, 76.4082
1035, 76.3665
1030, 76.3433
1025, 76.265
1020, 76.2292
1015, 76.1502
1010, 76.0831
1005, 75.9883
1000, 75.8877
995, 75.8083
990, 75.6907
985, 75.5957
980, 75.4414
975, 75.3367
970, 75.2175
965, 75.0563
960, 74.9158
955, 74.7661
950, 74.6313
945, 74.4722
940, 74.2951
935, 74.1335
930, 74.0096
925, 73.8454
920, 73.6847
915, 73.4892
910, 73.3484
905, 73.1655
900, 73.011
895, 72.83
890, 72.6281
885, 72.4836
880, 72.3348
875, 72.1761
870, 72.0226
865, 71.9175
860, 71.7817
855, 71.739
850, 71.9061
845, 71.2831
840, 71.2063
835, 71.5498
830, 71.4075
825, 71.4545
820, 71.5678
815, 71.2194
810, 71.2295
805, 71.1522
800, 71.289
795, 71.3706
790, 71.4539
785, 71.3981
780, 71.5871
775, 71.6479
770, 71.8128
765, 71.9411
760, 71.9867
755, 72.1093
750, 72.2209
745, 72.3022
740, 72.2509
735, 72.3812
730, 72.4393
725, 72.452
720, 72.3766
715, 72.3421
710, 72.2071
705, 72.0377
700, 71.7745
695, 71.3876
690, 70.9308
685, 70.1903
680, 69.4889
675, 68.4331
670, 67.2924
665, 66.0424
660, 64.5986
655, 62.94
650, 61.1905
645, 59.3776
640, 57.4964
635, 55.5173
630, 53.4806
625, 51.3191
620, 49.0582
615, 46.6196
610, 43.9373
605, 40.9518
600, 37.5517
595, 33.6976
590, 29.3632
585, 24.7684
580, 20.0501
575, 15.6625
570, 11.8872
565, 8.868726
560, 6.606364
555, 5.094697
550, 4.219327
545, 3.777462
540, 3.547249
535, 3.361506
530, 3.165820
525, 2.966259
520, 2.748078
515, 2.516788
510, 2.278189
505, 2.031563
500, 1.813863
495, 1.596170
490, 1.378089
485, 1.180821
480, 1.003761
475, 0.838323
470, 0.686020
465, 0.552210
460, 0.442044
455, 0.349466
450, 0.263491
445, 0.187406
440, 0.149896
435, 0.116694
430, 0.077002
425, 0.055825
420, 0.022412
415, 0.024340
410, 0.016584
405, 0.013007
400, 0.006255
395, -0.012625
390, -0.010383
385, -0.009264
380, 0.003606
375, -0.018358
370, -0.016827
365, -0.014359
360, 0.000621
355, 0.035376
350, 0.060425
345, 0.128399
340, 0.050769
335, -0.001999
330, -0.042360
325, 0.231167
320, 0.139468
315, 0.122788
310, -0.151734
305, -0.238937
300, 0.226827