Folder: campaign1/UV-Vis data/Transmission (part 2)

File: 10-1FAPbI3-9MAPbBr3.Sample.Raw.csv
nm, %T
1200, 80.2699
1196, 80.1184
1192, 79.9757
1188, 79.8399
1184, 79.679
1180, 79.543
1176, 79.4005
1172, 79.2233
1168, 79.1107
1164, 78.9794
1160, 78.8251
1156, 78.6718
1152, 78.5377
1148, 78.416
1144, 78.3113
1140, 78.1584
1136, 78.0558
1132, 77.9352
1128, 77.8674
1124, 77.7388
1120, 77.6076
1116, 77.5089
1112, 77.4211
1108, 77.347
1104, 77.2312
1100, 77.1296
1096, 77.0885
1092, 76.9838
1088, 76.909
1084, 76.836
1080, 76.7773
1076, 76.7181
1072, 76.6519
1068, 76.6248
1064, 76.5851
1060, 76.5375
1056, 76.5267
1052, 76.4992
1048, 76.4757
1044, 76.4651
1040, 76.4645
1036, 76.4807
1032, 76.4986
1028, 76.5193
1024, 76.5382
1020, 76.5705
1016, 76.6267
1012, 76.6794
1008, 76.7133
1004, 76.7803
1000, 76.8431
996, 76.9319
992, 77.0297
988, 77.1129
984, 77.2281
980, 77.3478
976, 77.4751
972, 77.6059
968, 77.7291
964, 77.8741
960, 78.0104
956, 78.1921
952, 78.3498
948, 78.5327
944, 78.7061
940, 78.9014
936, 79.106
932, 79.2989
928, 79.5151
924, 79.7195
920, 79.9577
916, 80.1894
912, 80.3928
908, 80.6205
904, 80.8556
900, 81.0713
896, 81.3214
892, 81.5233
888, 81.7166
884, 81.9382
880, 82.155
876, 82.3621
872, 82.5666
868, 82.7564
864, 82.8936
860, 83.051
856, 83.051
852, 83.051
848, 83.051
844, 83.051
840, 83.051
836, 83.051
832, 83.051
828, 83.051
824, 83.051
820, 83.051
816, 83.051
812, 83.051
808, 83.051
804, 83.051
800, 83.051
796, 83.051
792, 83.051
788, 83.051
784, 83.051
780, 83.051
776, 83.051
772, 83.051
768, 83.051
764, 83.051
760, 83.051
756, 83.051
752, 83.051
748, 83.051
744, 83.051
740, 83.051
736, 83.051
732, 83.051
728, 83.051
724, 83.051
720, 83.051
716, 83.051
712, 83.051
708, 83.051
704, 83.051
700, 83.051
696, 83.051
692, 83.051
688, 83.051
684, 83.051
680, 83.051
676, 83.051
672, 83.051
668, 83.051
664, 84.7074
660, 84.7874
656, 84.7611
652, 84.854
648, 84.91
644, 84.9052
640, 85.0672
636, 74.8966
632, 75.3532
628, 75.8704
624, 76.3648
620, 76.7561
616, 77.2068
612, 77.4343
608, 77.6139
604, 77.7261
600, 77.5462
596, 77.0595
592, 76.407
588, 75.2883
584, 73.4646
580, 70.0464
576, 66.5304
572, 60.3443
568, 50.9138
564, 37.7965
560, 22.4614
556, 11.2144
552, 6.654186
548, 5.762823
544, 6.145105
540, 6.871900
536, 7.524369
532, 7.948087
528, 8.221388
524, 8.339866
520, 8.380276
516, 8.425076
512, 8.413320
508, 8.278987
504, 7.972899
500, 7.355271
496, 6.527550
492, 4.552629
488, 2.163958
484, 3.516112
480, 4.667620
476, 4.525940
472, 4.368605
468, 4.228358
464, 4.028846
460, 4.004109
456, 4.444828
452, 5.007237
448, 6.564138
444, 6.298152
440, 5.942601
436, 5.713378
432, 5.561028
428, 5.387061
424, 5.227888
420, 5.227985
416, 5.227985
412, 5.227985
408, 5.227985
404, 5.227985
400, 5.227985
396, 5.227985
392, 5.227985
388, 5.227985
384, 5.227985
380, 5.227985
376, 5.227985
372, 5.227985
368, 5.227985
364, 5.227985
360, 5.227985
356, 5.227985
352, 5.227985
348, 5.227985
344, 5.227985
340, 5.227985
336, 5.227985
332, 5.227985
328, 5.227985
324, 5.227985
320, 5.227985
316, 5.227985
312, 5.227985
308, 5.227985
304, 5.227985
300, 5.227985

File: 11_Sample286.Sample.Raw.csv
nm, %T
1100, 71.6034
1095, 71.6233
1090, 71.69
1085, 71.7704
1080, 71.8799
1075, 72.0272
1070, 72.0675
1065, 72.2258
1060, 72.3786
1055, 72.5018
1050, 72.6679
1045, 72.8288
1040, 72.9917
1035, 73.1809
1030, 73.3409
1025, 73.5296
1020, 73.6828
1015, 73.8612
1010, 74.0197
1005, 74.1694
1000, 74.3461
995, 74.5057
990, 74.609
985, 74.7319
980, 74.8282
975, 74.9242
970, 75.0252
965, 75.0522
960, 75.0562
955, 75.0658
950, 75.0534
945, 74.9939
940, 74.9111
935, 74.7991
930, 74.7317
925, 74.5835
920, 74.4441
915, 74.2516
910, 74.0682
905, 73.8521
900, 73.6361
895, 73.4043
890, 73.131
885, 72.9022
880, 72.6663
875, 72.4252
870, 72.2007
865, 72.0026
860, 71.8176
855, 71.68
850, 71.678
845, 70.5868
840, 70.6177
835, 70.7102
830, 70.8035
825, 70.5479
820, 70.5258
815, 70.2634
810, 70.1705
805, 70.093
800, 70.0726
795, 70.2015
790, 70.1178
785, 70.1503
780, 70.3197
775, 70.2202
770, 70.2994
765, 70.2932
760, 70.2881
755, 70.3454
750, 70.264
745, 70.193
740, 70.0411
735, 70.0336
730, 69.8864
725, 69.817
720, 69.6489
715, 69.4541
710, 69.2224
705, 69.0645
700, 68.8173
695, 68.5708
690, 68.3567
685, 68.0398
680, 67.7882
675, 67.4959
670, 67.3157
665, 67.1598
660, 66.9519
655, 66.7644
650, 66.5868
645, 66.4511
640, 66.2424
635, 66.0608
630, 65.9407
625, 65.7402
620, 65.5225
615, 65.327
610, 65.005
605, 64.6258
600, 64.2471
595, 63.8054
590, 63.2784
585, 62.8471
580, 62.3866
575, 61.8973
570, 61.3783
565, 60.2447
560, 57.6125
555, 51.9241
550, 41.699
545, 25.964
540, 8.725155
535, 1.064301
530, 0.230193
525, 0.265077
520, 0.406064
515, 0.545038
510, 0.623039
505, 0.650761
500, 0.648350
495, 0.616903
490, 0.561843
485, 0.506623
480, 0.454709
475, 0.403758
470, 0.347252
465, 0.292719
460, 0.245216
455, 0.202150
450, 0.156806
445, 0.113691
440, 0.091308
435, 0.067807
430, 0.056345
425, 0.031491
420, 0.006345
415, 0.017386
410, 0.012489
405, 0.012700
400, 0.003794
395, -0.004824
390, -0.000925
385, -0.013690
380, -0.002370
375, -0.017120
370, 0.013111
365, -0.008058
360, 0.049377
355, 0.072307
350, 0.059799
345, 0.027246
340, -0.009944
335, 0.031981
330, -0.078593
325, 0.183325
320, 0.181855
315, 0.323695
310, -0.095978
305, -0.074863
300, -0.064543

File: 12-F_9_M_1_Cs5Rb5.Sample.Raw.csv
nm, %T
900, 76.3008
895, 76.6816
890, 77.0337
885, 77.3957
880, 77.6748
875, 77.9556
870, 78.1378
865, 78.3177
860, 77.9583
855, 77.4117
850, 76.8026
845, 76.2557
840, 75.8958
835, 76.0689
830, 76.4877
825, 76.4624
820, 75.6382
815, 74.451
810, 73.2742
805, 71.4718
800, 68.911
795, 65.6329
790, 61.0931
785, 55.0231
780, 47.4211
775, 38.8695
770, 31.0429
765, 25.2485
760, 21.4018
755, 19.4242
750, 18.2467
745, 17.6116
740, 17.258
735, 16.8917
730, 16.6024
725, 16.2858
720, 15.9581
715, 15.6424
710, 15.2317
705, 14.8017
700, 14.3616
695, 13.9241
690, 13.4805
685, 12.9785
680, 12.48
675, 11.9751
670, 11.4294
665, 10.9044
660, 10.3461
655, 9.797691
650, 9.243440
645, 8.701773
640, 8.131699
635, 7.565356
630, 7.023737
625, 6.473036
620, 5.935470
615, 5.400045
610, 4.915323
605, 4.422648
600, 3.940623
595, 3.507009
590, 3.111202
585, 2.725545
580, 2.363920
575, 2.029217
570, 1.741853
565, 1.471508
560, 1.247454
555, 1.026612
550, 0.844709
545, 0.699057
540, 0.575827
535, 0.479300
530, 0.395873
525, 0.333835
520, 0.291033
515, 0.258728
510, 0.241443
505, 0.222750
500, 0.205920
495, 0.175610
490, 0.106469
485, 0.081263
480, 0.104074
475, 0.146666
470, 0.146727
465, 0.167222
460, 0.175853
455, 0.170972
450, 0.143408
445, 0.107257
440, 0.099684
435, 0.122043
430, 0.082395
425, 0.104073
420, 0.110156
415, 0.122964
410, 0.131118
405, 0.147678
400, 0.151360

File: 13-F_5_M_1_Cs5Rb5.Sample.Raw.csv
nm, %T
900, 71.5622
895, 71.3954
890, 71.2779
885, 71.2802
880, 71.2994
875, 71.3813
870, 71.5035
865, 71.7205
860, 71.5908
855, 71.3696
850, 71.1328
845, 70.9563
840, 70.9158
835, 72.2484
830, 73.535
825, 74.5452
820, 74.9304
815, 75.1477
810, 76.078
805, 75.8529
800, 76.2533
795, 75.5797
790, 74.8268
785, 73.1674
780, 70.4842
775, 65.9315
770, 59.6672
765, 50.8812
760, 41.1102
755, 32.2012
750, 25.8606
745, 22.1068
740, 20.0249
735, 19.0873
730, 18.5712
725, 18.2446
720, 17.9743
715, 17.6865
710, 17.4312
705, 17.0433
700, 16.6333
695, 16.2486
690, 15.7724
685, 15.3014
680, 14.8274
675, 14.3064
670, 13.7597
665, 13.2201
660, 12.6331
655, 12.0808
650, 11.4937
645, 10.916
640, 10.3225
635, 9.733182
630, 9.112389
625, 8.494987
620, 7.884713
615, 7.250680
610, 6.678313
605, 6.071031
600, 5.496229
595, 4.927278
590, 4.411820
585, 3.903265
580, 3.417160
575, 2.971839
570, 2.557834
565, 2.182208
560, 1.857305
555, 1.527673
550, 1.245328
545, 1.002050
540, 0.812116
535, 0.643625
530, 0.502595
525, 0.404255
520, 0.313688
515, 0.262710
510, 0.231941
505, 0.199759
500, 0.174633
495, 0.103895
490, 0.036953
485, -0.023072
480, 0.008155
475, 0.061518
470, 0.067916
465, 0.092120
460, 0.121580
455, 0.102950
450, 0.076389
445, 0.020149
440, 0.048215
435, 0.015052
430, -0.005391
425, 0.011191
420, 0.050450
415, 0.050548
410, 0.043163
405, 0.061617
400, 0.054021

File: 14-F_3_M_1_Cs5Rb5.Sample.Raw.csv
nm, %T
900, 72.6705
895, 72.968
890, 73.2934
885, 73.7053
880, 74.171
875, 74.6925
870, 75.2416
865, 75.8764
860, 76.1953
855, 76.611
850, 77.0763
845, 77.5442
840, 77.9675
835, 78.2992
830, 79.1181
825, 80.5955
820, 80.9822
815, 81.1654
810, 81.7018
805, 81.6881
800, 81.6687
795, 81.3875
790, 81.1032
785, 80.4454
780, 79.5449
775, 78.7329
770, 77.5249
765, 76.0596
760, 74.0175
755, 71.7086
750, 68.1793
745, 63.7384
740, 57.0999
735, 48.6694
730, 38.8598
725, 30.0776
720, 23.7053
715, 20.0257
710, 18.1847
705, 17.2252
700, 16.7496
695, 16.5166
690, 16.2632
685, 15.9923
680, 15.6568
675, 15.3359
670, 14.9488
665, 14.5387
660, 14.0837
655, 13.6201
650, 13.1069
645, 12.5626
640, 12.0112
635, 11.4408
630, 10.8601
625, 10.2346
620, 9.612006
615, 9.011932
610, 8.370836
605, 7.725533
600, 7.103546
595, 6.482208
590, 5.889498
585, 5.313716
580, 4.744683
575, 4.203838
570, 3.706961
565, 3.239992
560, 2.815394
555, 2.379883
550, 1.989320
545, 1.657837
540, 1.371212
535, 1.117923
530, 0.895509
525, 0.717168
520, 0.576761
515, 0.454765
510, 0.379586
505, 0.305412
500, 0.255304
495, 0.163249
490, 0.063799
485, -0.020418
480, 0.023751
475, 0.067018
470, 0.074636
465, 0.097724
460, 0.121071
455, 0.129324
450, 0.076491
445, 0.000814
440, 0.024006
435, 0.002441
430, -0.009969
425, 0.035708
420, 0.045975
415, 0.053091
410, 0.057619
405, 0.048785
400, 0.078381

File: 15-F_2_M_1_Cs5Rb5.Sample.Raw.csv
nm, %T
900, 76.3658
895, 76.2947
890, 76.231
885, 76.2162
880, 76.1349
875, 76.0931
870, 76.0337
865, 75.9918
860, 75.7591
855, 75.4172
850, 75.0248
845, 74.6406
840, 74.3233
835, 74.1317
830, 74.68
825, 75.3252
820, 75.3486
815, 75.1946
810, 75.4665
805, 75.3691
800, 75.2126
795, 75.1217
790, 74.8321
785, 74.4935
780, 74.3775
775, 74.0787
770, 74.1992
765, 73.9083
760, 73.5859
755, 73.3382
750, 72.8744
745, 72.191
740, 71.3786
735, 69.9251
730, 67.8615
725, 64.4996
720, 59.3174
715, 51.8019
710, 42.6463
705, 33.3365
700, 25.7291
695, 20.7714
690, 18.0912
685, 16.7557
680, 16.1264
675, 15.8384
670, 15.6246
665, 15.4106
660, 15.1475
655, 14.8881
650, 14.5655
645, 14.1764
640, 13.7849
635, 13.343
630, 12.8819
625, 12.3696
620, 11.8496
615, 11.3284
610, 10.8103
605, 10.2546
600, 9.699792
595, 9.148604
590, 8.582834
585, 8.021209
580, 7.464650
575, 6.907012
570, 6.368668
565, 5.852049
560, 5.363666
555, 4.848957
550, 4.370892
545, 3.924824
540, 3.515770
535, 3.137289
530, 2.783455
525, 2.476052
520, 2.185914
515, 1.935050
510, 1.727702
505, 1.527777
500, 1.313123
495, 1.109646
490, 0.890845
485, 0.705637
480, 0.695494
475, 0.685560
470, 0.654518
465, 0.631896
460, 0.618896
455, 0.586845
450, 0.520261
445, 0.416918
440, 0.413690
435, 0.375485
430, 0.338124
425, 0.292584
420, 0.258352
415, 0.255488
410, 0.243097
405, 0.233026
400, 0.250737

File: 16-F_1_M_1_Cs5Rb5.Sample.Raw.csv
nm, %T
900, 77.3134
895, 77.1934
890, 77.072
885, 76.9896
880, 76.8235
875, 76.7155
870, 76.5911
865, 76.5291
860, 76.2567
855, 75.8554
850, 75.3962
845, 74.9497
840, 74.5866
835, 74.3777
830, 75.2312
825, 75.6419
820, 75.8516
815, 75.6797
810, 75.7945
805, 75.693
800, 75.8317
795, 75.5761
790, 75.5333
785, 75.3284
780, 75.0833
775, 75.0794
770, 75.1436
765, 75.0214
760, 74.7836
755, 75.0088
750, 74.718
745, 74.7338
740, 74.6017
735, 74.5036
730, 74.4621
725, 74.2016
720, 74.0995
715, 73.9534
710, 73.7179
705, 73.3887
700, 72.89
695, 72.3271
690, 71.3768
685, 69.8558
680, 67.3232
675, 63.5411
670, 58.2525
665, 51.6512
660, 44.7445
655, 38.2945
650, 32.638
645, 27.7873
640, 23.6919
635, 20.1705
630, 17.2931
625, 15.1885
620, 13.7844
615, 12.976
610, 12.5747
605, 12.3384
600, 12.1417
595, 11.9229
590, 11.6467
585, 11.3205
580, 10.9223
575, 10.4983
570, 10.0425
565, 9.571488
560, 9.080724
555, 8.528842
550, 7.969730
545, 7.439093
540, 6.886972
535, 6.361947
530, 5.826981
525, 5.315638
520, 4.816849
515, 4.349881
510, 3.915504
505, 3.488894
500, 3.062113
495, 2.609026
490, 2.172142
485, 1.762970
480, 1.561422
475, 1.387314
470, 1.189599
465, 1.026869
460, 0.889549
455, 0.744070
450, 0.580354
445, 0.393411
440, 0.335163
435, 0.281105
430, 0.228671
425, 0.206111
420, 0.197121
415, 0.193955
410, 0.178557
405, 0.206647
400, 0.221281

File: 17-F_1_M_2_Cs5Rb5.Sample.Raw.csv
nm, %T
900, 69.7445
895, 69.728
890, 69.7815
885, 69.8996
880, 69.9838
875, 70.1424
870, 70.2825
865, 70.5247
860, 70.4491
855, 70.3142
850, 70.1544
845, 70.0041
840, 69.8976
835, 69.8693
830, 70.792
825, 71.8932
820, 72.354
815, 72.7755
810, 73.3452
805, 73.5393
800, 73.4042
795, 73.3369
790, 73.3937
785, 73.1622
780, 73.0032
775, 72.6636
770, 72.5959
765, 72.143
760, 71.6519
755, 71.2385
750, 70.5457
745, 69.9085
740, 69.1599
735, 68.4209
730, 67.6882
725, 66.8211
720, 66.1711
715, 65.4008
710, 64.6405
705, 64.0397
700, 63.5334
695, 63.0413
690, 62.7659
685, 62.6065
680, 62.5184
675, 62.4994
670, 62.6287
665, 62.791
660, 62.8483
655, 62.7168
650, 62.3372
645, 61.2664
640, 59.4534
635, 56.4979
630, 52.0705
625, 46.1835
620, 38.7869
615, 30.444
610, 22.1473
605, 15.1
600, 10.0725
595, 7.087164
590, 5.625846
585, 5.042436
580, 4.849517
575, 4.782696
570, 4.762522
565, 4.676292
560, 4.550974
555, 4.319323
550, 4.076805
545, 3.806852
540, 3.529034
535, 3.241294
530, 2.942722
525, 2.656696
520, 2.366739
515, 2.110259
510, 1.873610
505, 1.641910
500, 1.392567
495, 1.105968
490, 0.827862
485, 0.570370
480, 0.511300
475, 0.478191
470, 0.401794
465, 0.372453
460, 0.340199
455, 0.275857
450, 0.191788
445, 0.088533
440, 0.071101
435, 0.065700
430, 0.065102
425, 0.063481
420, 0.076082
415, 0.084417
410, 0.100273
405, 0.108467
400, 0.121597

File: 18-F_1_M_3_Cs5Rb5.Sample.Raw.csv
nm, %T
900, 72.2273
895, 72.2699
890, 72.3126
885, 72.4097
880, 72.5109
875, 72.6223
870, 72.7128
865, 72.8877
860, 72.7784
855, 72.5996
850, 72.3906
845, 72.1907
840, 72.0391
835, 71.9751
830, 72.8027
825, 73.9498
820, 74.197
815, 74.1903
810, 74.8617
805, 74.7806
800, 75.0143
795, 74.785
790, 74.7255
785, 74.7364
780, 74.5026
775, 74.2465
770, 74.1413
765, 73.8477
760, 73.2931
755, 72.9696
750, 72.5089
745, 72.0478
740, 71.4089
735, 70.8648
730, 70.4175
725, 69.6231
720, 69.0455
715, 68.2935
710, 67.7584
705, 67.2047
700, 66.6299
695, 66.3063
690, 65.9143
685, 65.736
680, 65.6262
675, 65.6474
670, 65.7475
665, 65.9746
660, 66.1582
655, 66.5196
650, 66.8263
645, 66.9981
640, 67.0107
635, 66.4169
630, 65.0694
625, 62.6776
620, 58.4564
615, 52.0256
610, 43.0575
605, 32.3443
600, 21.8051
595, 13.7271
590, 8.940729
585, 6.841652
580, 6.184287
575, 6.141120
570, 6.254183
565, 6.332823
560, 6.303797
555, 6.148142
550, 5.929287
545, 5.671039
540, 5.378231
535, 5.073064
530, 4.732720
525, 4.386595
520, 4.030691
515, 3.699896
510, 3.388682
505, 3.070165
500, 2.718982
495, 2.320020
490, 1.915311
485, 1.539192
480, 1.375800
475, 1.241056
470, 1.069040
465, 0.944022
460, 0.825399
455, 0.700283
450, 0.545113
445, 0.386695
440, 0.333434
435, 0.299107
430, 0.248812
425, 0.236631
420, 0.228652
415, 0.221518
410, 0.237295
405, 0.228443
400, 0.250636

File: 19-F_1_M_5_Cs5Rb5.Sample.Raw.csv
nm, %T
900, 73.6149
895, 73.578
890, 73.4936
885, 73.4604
880, 73.3437
875, 73.3183
870, 73.2081
865, 73.1884
860, 72.8931
855, 72.4565
850, 71.9546
845, 71.4632
840, 71.0583
835, 70.8156
830, 71.5542
825, 72.3626
820, 72.6692
815, 72.1211
810, 72.6997
805, 72.5923
800, 72.5309
795, 72.2409
790, 72.121
785, 71.9994
780, 71.8857
775, 71.767
770, 71.9603
765, 71.7099
760, 71.501
755, 71.6038
750, 71.4695
745, 71.4488
740, 71.298
735, 71.1908
730, 71.0054
725, 70.7958
720, 70.8953
715, 70.6604
710, 70.684
705, 70.449
700, 70.2867
695, 70.1885
690, 70.089
685, 69.954
680, 69.6488
675, 69.5777
670, 69.4005
665, 69.1458
660, 68.9663
655, 68.8113
650, 68.5233
645, 68.2136
640, 68.0166
635, 67.7489
630, 67.3183
625, 66.8864
620, 66.2605
615, 65.4546
610, 64.213
605, 62.3316
600, 59.3389
595, 54.8211
590, 48.4234
585, 39.9339
580, 30.0947
575, 20.5591
570, 13.3825
565, 9.398814
560, 7.825414
555, 7.467329
550, 7.533804
545, 7.649014
540, 7.678275
535, 7.605002
530, 7.441591
525, 7.221690
520, 6.951026
515, 6.677517
510, 6.374176
505, 6.042034
500, 5.659936
495, 5.210901
490, 4.716669
485, 4.239235
480, 3.962268
475, 3.693632
470, 3.381034
465, 3.081217
460, 2.819450
455, 2.523444
450, 2.193794
445, 1.860206
440, 1.699006
435, 1.498890
430, 1.338764
425, 1.226088
420, 1.110000
415, 0.991032
410, 0.919760
405, 0.839829
400, 0.779936

File: 20-F_1_M_9_Cs5Rb5.Sample.Raw.csv
nm, %T
900, 70.2248
895, 70.079
890, 69.9616
885, 69.921
880, 69.8155
875, 69.8015
870, 69.7566
865, 69.7965
860, 69.5933
855, 69.2858
850, 68.9322
845, 68.5906
840, 68.3193
835, 68.1764
830, 69.085
825, 70.0054
820, 70.6561
815, 70.5867
810, 71.4111
805, 71.5704
800, 71.8983
795, 72.0788
790, 72.2428
785, 72.3436
780, 72.7737
775, 72.7996
770, 73.1205
765, 73.2663
760, 73.3641
755, 73.641
750, 73.6056
745, 73.866
740, 73.8036
735, 73.6928
730, 73.6314
725, 73.2484
720, 73.155
715, 72.8129
710, 72.5335
705, 72.0607
700, 71.5193
695, 71.0572
690, 70.605
685, 70.113
680, 69.6219
675, 69.0245
670, 68.5649
665, 68.1559
660, 67.6942
655, 67.3705
650, 67.1218
645, 66.9046
640, 66.8912
635, 66.8827
630, 66.9087
625, 67.0218
620, 67.2135
615, 67.3764
610, 67.5373
605, 67.5578
600, 67.3989
595, 66.8221
590, 65.3739
585, 62.4663
580, 57.0973
575, 48.3027
570, 35.8951
565, 22.2456
560, 11.7146
555, 6.328973
550, 4.805696
545, 4.798901
540, 5.133372
535, 5.395080
530, 5.483449
525, 5.435557
520, 5.278298
515, 5.083489
510, 4.848273
505, 4.580572
500, 4.253464
495, 3.862817
490, 3.416793
485, 2.988341
480, 2.754047
475, 2.507168
470, 2.245300
465, 1.985870
460, 1.749364
455, 1.502600
450, 1.241171
445, 0.955340
440, 0.810291
435, 0.671643
430, 0.573712
425, 0.494118
420, 0.424858
415, 0.373570
410, 0.340723
405, 0.293319
400, 0.312403

File: 21-FAPbBr Batch 2.3.Sample.Raw.csv
nm, %T
1200, 80.0575
1190, 80.1426
1180, 80.2057
1170, 80.2732
1160, 80.3547
1150, 80.4423
1140, 80.5088
1130, 80.5911
1120, 80.6385
1110, 80.7362
1100, 80.7708
1090, 80.8263
1080, 80.8394
1070, 80.89
1060, 80.8719
1050, 80.9003
1040, 80.8625
1030, 80.8327
1020, 80.7877
1010, 80.7169
1000, 80.6513
990, 80.5424
980, 80.4227
970, 80.3123
960, 80.21
950, 80.0947
940, 79.9391
930, 79.7781
920, 79.6158
910, 79.4928
900, 79.3134
890, 79.1679
880, 79.0157
870, 78.8599
860, 78.719
850, 78.5169
840, 78.2349
830, 77.9715
820, 77.825
810, 78.2776
800, 78.107
790, 78.7423
780, 78.443
770, 78.4146
760, 78.2673
750, 77.9328
740, 77.7048
730, 77.5015
720, 77.1521
710, 76.8015
700, 76.6408
690, 76.286
680, 75.9974
670, 75.7209
660, 75.5154
650, 75.4106
640, 75.2481
630, 75.1842
620, 75.0954
610, 74.8407
600, 74.4667
590, 73.956
580, 73.2404
570, 71.5768
560, 64.9497
550, 41.2258
540, 5.500462
530, 2.613205
520, 3.930850
510, 4.516774
500, 4.403858
490, 3.516141
480, 2.857123
470, 2.709392
460, 2.376524
450, 1.698158
440, 0.998944
430, 0.746197
420, 0.558398
410, 0.482047
400, 0.499480

File: 22-Sample287.Sample.Raw.csv
nm, %T
1100, 65.4517
1095, 65.3305
1090, 65.2747
1085, 65.1848
1080, 65.1205
1075, 65.0448
1070, 64.9478
1065, 64.8842
1060, 64.8038
1055, 64.7094
1050, 64.6277
1045, 64.5063
1040, 64.4087
1035, 64.2823
1030, 64.1353
1025, 63.9728
1020, 63.7716
1015, 63.5111
1010, 63.2274
1005, 62.8489
1000, 62.4058
995, 61.8831
990, 61.2426
985, 60.5239
980, 59.6505
975, 58.6535
970, 57.5416
965, 56.2841
960, 54.878
955, 53.3652
950, 51.7508
945, 50.0494
940, 48.2321
935, 46.3722
930, 44.4925
925, 42.5856
920, 40.6595
915, 38.7849
910, 36.9457
905, 35.1381
900, 33.3519
895, 31.6609
890, 30.0216
885, 28.479
880, 26.9685
875, 25.55
870, 24.2081
865, 22.953
860, 21.713
855, 20.6558
850, 19.6719
845, 17.6674
840, 17.2005
835, 16.6057
830, 15.9081
825, 15.042
820, 14.0967
815, 13.2831
810, 12.519
805, 11.798
800, 11.0722
795, 10.4526
790, 9.770477
785, 9.159129
780, 8.548567
775, 7.944869
770, 7.386601
765, 6.831070
760, 6.280656
755, 5.776195
750, 5.234638
745, 4.760105
740, 4.308974
735, 3.843117
730, 3.367692
725, 2.958383
720, 2.582980
715, 2.230239
710, 1.911233
705, 1.645608
700, 1.388511
695, 1.162444
690, 0.993075
685, 0.841678
680, 0.718066
675, 0.610643
670, 0.531063
665, 0.483172
660, 0.421622
655, 0.377164
650, 0.334207
645, 0.316178
640, 0.298694
635, 0.279413
630, 0.265433
625, 0.259336
620, 0.256658
615, 0.246124
610, 0.244874
605, 0.246539
600, 0.241756
595, 0.237361
590, 0.239821
585, 0.248624
580, 0.244137
575, 0.247787
570, 0.252160
565, 0.247546
560, 0.253729
555, 0.252691
550, 0.256540
545, 0.249767
540, 0.257445
535, 0.252648
530, 0.257763
525, 0.261388
520, 0.260053
515, 0.267547
510, 0.262359
505, 0.269843
500, 0.272223
495, 0.269517
490, 0.276459
485, 0.280386
480, 0.281082
475, 0.287288
470, 0.284487
465, 0.287812
460, 0.281022
455, 0.298928
450, 0.301031
445, 0.294655
440, 0.308382
435, 0.315207
430, 0.321709
425, 0.312049
420, 0.304967
415, 0.331658
410, 0.330548
405, 0.324254
400, 0.335109
395, 0.325473
390, 0.327747
385, 0.325887
380, 0.368778
375, 0.361687
370, 0.381663
365, 0.352469
360, 0.356199
355, 0.362574
350, 0.410783
345, 0.492197
340, 0.396313
335, 0.455198
330, 0.311202
325, 0.514517
320, 0.545350
315, 0.455655
310, 0.197382
305, 0.009924
300, 0.059210

File: 23-Ca 1%.Sample.Raw.csv
nm, %T
1200, 63.9817
1195, 63.8502
1190, 63.767
1185, 63.6206
1180, 63.5483
1175, 63.4289
1170, 63.3419
1165, 63.2338
1160, 63.1722
1155, 63.0704
1150, 62.9809
1145, 62.9078
1140, 62.84
1135, 62.7368
1130, 62.6637
1125, 62.5493
1120, 62.4873
1115, 62.3804
1110, 62.2768
1105, 62.185
1100, 62.0904
1095, 61.9716
1090, 61.8764
1085, 61.7804
1080, 61.6603
1075, 61.5548
1070, 61.4399
1065, 61.2945
1060, 61.1701
1055, 61.0251
1050, 60.8922
1045, 60.7047
1040, 60.548
1035, 60.341
1030, 60.1446
1025, 59.8941
1020, 59.5851
1015, 59.3321
1010, 58.9934
1005, 58.5596
1000, 58.0464
995, 57.428
990, 56.6816
985, 55.806
980, 54.7977
975, 53.641
970, 52.3727
965, 51.0056
960, 49.525
955, 48.0091
950, 46.4545
945, 44.881
940, 43.3289
935, 41.8083
930, 40.3463
925, 38.9357
920, 37.5869
915, 36.3132
910, 35.0808
905, 33.925
900, 32.8268
895, 31.7656
890, 30.7561
885, 29.7816
880, 28.8651
875, 28.0077
870, 27.1317
865, 26.2847
860, 25.4799
855, 24.7513
850, 23.7535
845, 22.5787
840, 21.3188
835, 20.0662
830, 18.9129
825, 17.951
820, 17.2728
815, 17.3872
810, 17.3887
805, 17.1176
800, 16.6677
795, 15.9811
790, 15.4671
785, 14.9619
780, 14.4793
775, 13.9908
770, 13.5705
765, 13.0334
760, 12.4617
755, 11.8987
750, 11.4102
745, 10.7792
740, 10.147
735, 9.537410
730, 8.900895
725, 8.297182
720, 7.701993
715, 7.114439
710, 6.563595
705, 6.066497
700, 5.579904
695, 5.123288
690, 4.779191
685, 4.395843
680, 4.071097
675, 3.805710
670, 3.560285
665, 3.325192
660, 3.145974
655, 2.941822
650, 2.790173
645, 2.655298
640, 2.531096
635, 2.409385
630, 2.319190
625, 2.216066
620, 2.143179
615, 2.102490
610, 2.042649
605, 1.999165
600, 1.964986
595, 1.930872
590, 1.904171
585, 1.896012
580, 1.902460
575, 1.894666
570, 1.881629
565, 1.888646
560, 1.905573
555, 1.922153
550, 1.932007
545, 1.943633
540, 1.954419
535, 1.973601
530, 1.984390
525, 1.999438
520, 2.017965
515, 2.026923
510, 2.041300
505, 2.053516
500, 2.075141
495, 2.087250
490, 2.107836
485, 2.136001
480, 2.146999
475, 2.159904
470, 2.170508
465, 2.187881
460, 2.218522
455, 2.217457
450, 2.245096
445, 2.286053
440, 2.267149
435, 2.279368
430, 2.292673
425, 2.341318
420, 2.348876
415, 2.356336
410, 2.382303
405, 2.411925
400, 2.443409
395, 2.430776
390, 2.432631
385, 2.438891
380, 2.456809
375, 2.627566
370, 2.377180
365, 1.749611
360, 2.595720
355, 2.676179
350, 2.626082
345, 2.626082
340, 2.626082
335, 2.626082
330, 2.626082
325, 2.626082
320, 2.626082
315, 2.626082
310, 2.626082
305, 2.626082
300, 2.626082