Folder: campaign1/UV-Vis data/Transmission (part 6)

File: 69-CsNaSbI Batch 3.1.Sample.Raw.csv
nm, %T
1200, 87.7077
1190, 87.6897
1180, 87.6422
1170, 87.6297
1160, 87.6323
1150, 87.6257
1140, 87.6265
1130, 87.6255
1120, 87.6152
1110, 87.6339
1100, 87.6331
1090, 87.6276
1080, 87.6411
1070, 87.6333
1060, 87.6308
1050, 87.6176
1040, 87.6259
1030, 87.6037
1020, 87.5808
1010, 87.5597
1000, 87.5795
990, 87.5617
980, 87.523
970, 87.4994
960, 87.4771
950, 87.4358
940, 87.3953
930, 87.3525
920, 87.3132
910, 87.3065
900, 87.2583
890, 87.2332
880, 87.1532
870, 87.0812
860, 87.0245
850, 86.7675
840, 86.3972
830, 86.0353
820, 85.8035
810, 86.0152
800, 86.0362
790, 86.4016
780, 86.0225
770, 86.0232
760, 85.9109
750, 85.6571
740, 85.4406
730, 85.3071
720, 84.985
710, 84.7579
700, 84.6192
690, 84.2929
680, 84.0929
670, 83.747
660, 83.4486
650, 83.1908
640, 82.7931
630, 82.4943
620, 82.1555
610, 81.7027
600, 81.2766
590, 80.7728
580, 80.2436
570, 79.5409
560, 78.6781
550, 77.3698
540, 75.3471
530, 72.1593
520, 67.6757
510, 62.4241
500, 57.4244
490, 53.37
480, 51.0205
470, 49.781
460, 48.7803
450, 47.5899
440, 46.4323
430, 45.5755
420, 44.9686
410, 44.5576
400, 44.1993

File: 70-RbNaSbI Batch 4.2.Sample.Raw.csv
nm, %T
1200, 88.5143
1190, 88.5291
1180, 88.508
1170, 88.5285
1160, 88.5338
1150, 88.5575
1140, 88.5524
1130, 88.5566
1120, 88.5653
1110, 88.5948
1100, 88.6133
1090, 88.6276
1080, 88.6471
1070, 88.6639
1060, 88.6914
1050, 88.691
1040, 88.7378
1030, 88.7453
1020, 88.7619
1010, 88.7839
1000, 88.8142
990, 88.81
980, 88.8196
970, 88.8411
960, 88.854
950, 88.8587
940, 88.8363
930, 88.8611
920, 88.8346
910, 88.9023
900, 88.8806
890, 88.8345
880, 88.8153
870, 88.8436
860, 88.8323
850, 88.6755
840, 88.4455
830, 88.2302
820, 88.1175
810, 88.5764
800, 88.2398
790, 88.4579
780, 88.4152
770, 88.5509
760, 88.6587
750, 88.3367
740, 88.2011
730, 88.1873
720, 88.0986
710, 88.017
700, 88.0641
690, 87.8265
680, 87.9015
670, 87.7724
660, 87.6202
650, 87.5797
640, 87.4581
630, 87.3613
620, 87.261
610, 87.0816
600, 86.8871
590, 86.7189
580, 86.5214
570, 86.2124
560, 85.789
550, 85.1261
540, 84.0918
530, 82.4498
520, 80.1973
510, 77.5511
500, 74.9953
490, 72.7437
480, 71.0448
470, 69.8949
460, 68.6946
450, 67.3609
440, 66.0367
430, 64.9356
420, 64.1537
410, 63.7503
400, 63.5625

File: 71-RbNaSbBr (s) Batch 4.1.Sample.Raw.csv
nm, %T
1200, 89.8571
1190, 89.8034
1180, 89.726
1170, 89.705
1160, 89.6615
1150, 89.6444
1140, 89.5964
1130, 89.5835
1120, 89.5409
1110, 89.5262
1100, 89.4937
1090, 89.4804
1080, 89.4583
1070, 89.4156
1060, 89.4064
1050, 89.376
1040, 89.3516
1030, 89.3322
1020, 89.3047
1010, 89.2815
1000, 89.2688
990, 89.2556
980, 89.1739
970, 89.1679
960, 89.1413
950, 89.0879
940, 89.0147
930, 88.978
920, 88.9251
910, 88.9293
900, 88.8813
890, 88.7915
880, 88.6967
870, 88.6294
860, 88.5672
850, 88.3814
840, 88.1165
830, 87.8555
820, 87.6818
810, 87.7485
800, 87.6104
790, 87.8671
780, 87.6185
770, 87.7146
760, 87.4591
750, 87.0767
740, 87.0745
730, 86.9516
720, 86.7788
710, 86.4834
700, 86.407
690, 86.0608
680, 85.985
670, 85.6385
660, 85.3864
650, 85.1781
640, 84.793
630, 84.4735
620, 84.1334
610, 83.6248
600, 83.0754
590, 82.2477
580, 80.896
570, 78.9099
560, 76.6084
550, 74.4568
540, 72.9929
530, 72.1244
520, 71.6739
510, 71.2284
500, 70.7449
490, 69.8996
480, 69.1016
470, 68.5765
460, 68.1721
450, 67.7663
440, 67.6422
430, 67.5407
420, 67.2607
410, 66.7978
400, 66.3765

File: 72-CsCuBiI 285C.Sample.Raw.csv
nm, %T
1200, 81.0176
1190, 80.9087
1180, 80.7753
1170, 80.6784
1160, 80.5711
1150, 80.528
1140, 80.4302
1130, 80.3412
1120, 80.267
1110, 80.1851
1100, 80.1351
1090, 80.0574
1080, 79.9834
1070, 79.9188
1060, 79.8419
1050, 79.7778
1040, 79.7099
1030, 79.6266
1020, 79.5638
1010, 79.4837
1000, 79.4429
990, 79.334
980, 79.2298
970, 79.1753
960, 79.0738
950, 78.9809
940, 78.8773
930, 78.764
920, 78.6621
910, 78.554
900, 78.4647
890, 78.3782
880, 78.2453
870, 78.1303
860, 78.0373
850, 77.7008
840, 77.2184
830, 76.7449
820, 76.4353
810, 76.6277
800, 77.1363
790, 77.2061
780, 76.9853
770, 76.8877
760, 76.7524
750, 76.3039
740, 76.1777
730, 76.0393
720, 75.771
710, 75.6125
700, 75.4136
690, 75.1284
680, 75.0529
670, 74.7684
660, 74.4717
650, 74.1995
640, 73.88
630, 73.5441
620, 72.9406
610, 72.0659
600, 70.5166
590, 67.944
580, 64.1309
570, 59.3113
560, 54.2422
550, 49.3613
540, 45.5022
530, 42.7007
520, 40.6887
510, 39.2556
500, 38.4286
490, 38.5066
480, 40.8611
470, 42.7521
460, 41.0145
450, 39.0695
440, 37.9503
430, 37.6404
420, 37.5699
410, 37.5562
400, 37.6877

File: 73-CsCuSbI 285C.Sample.Raw.csv
nm, %T
1200, 84.5842
1190, 84.498
1180, 84.4468
1170, 84.3781
1160, 84.3332
1150, 84.2815
1140, 84.2188
1130, 84.1731
1120, 84.0877
1110, 84.0447
1100, 83.9855
1090, 83.9294
1080, 83.8677
1070, 83.8025
1060, 83.7375
1050, 83.6752
1040, 83.6112
1030, 83.5242
1020, 83.4897
1010, 83.4093
1000, 83.3715
990, 83.2962
980, 83.2111
970, 83.1363
960, 83.097
950, 83.0274
940, 82.9455
930, 82.8755
920, 82.8299
910, 82.7725
900, 82.7187
890, 82.6621
880, 82.5637
870, 82.5138
860, 82.4654
850, 82.2608
840, 81.966
830, 81.6798
820, 81.5007
810, 81.7244
800, 81.7435
790, 82.0881
780, 81.8569
770, 81.8841
760, 81.8866
750, 81.5978
740, 81.4948
730, 81.4716
720, 81.3393
710, 81.1783
700, 81.1344
690, 81.0551
680, 80.9792
670, 80.8256
660, 80.6216
650, 80.5404
640, 80.4007
630, 80.236
620, 80.0882
610, 79.8363
600, 79.459
590, 78.9456
580, 78.2665
570, 77.4831
560, 76.6663
550, 75.5765
540, 74.0039
530, 72.0034
520, 69.7922
510, 67.6331
500, 65.4517
490, 63.2439
480, 61.5995
470, 61.0953
460, 61.2471
450, 60.6699
440, 59.5564
430, 59.7917
420, 60.2782
410, 59.2356
400, 58.3869

File: 74-RbCuSbI 150C.Sample.Raw.csv
nm, %T
1200, 81.2304
1190, 81.1543
1180, 81.0847
1170, 81.0121
1160, 80.9498
1150, 80.9079
1140, 80.8584
1130, 80.7711
1120, 80.7201
1110, 80.6396
1100, 80.5788
1090, 80.517
1080, 80.4596
1070, 80.3812
1060, 80.3244
1050, 80.253
1040, 80.1997
1030, 80.1131
1020, 80.0355
1010, 79.9489
1000, 79.8896
990, 79.8098
980, 79.7071
970, 79.6317
960, 79.5511
950, 79.4376
940, 79.3263
930, 79.231
920, 79.1287
910, 79.0589
900, 78.9383
890, 78.8088
880, 78.6846
870, 78.5494
860, 78.4476
850, 78.186
840, 77.8138
830, 77.4519
820, 77.2211
810, 77.4476
800, 77.4936
790, 77.8801
780, 77.5503
770, 77.5243
760, 77.2622
750, 77.0449
740, 76.9506
730, 76.8815
720, 76.6387
710, 76.3969
700, 76.2636
690, 75.9923
680, 75.8806
670, 75.5782
660, 75.2442
650, 74.9284
640, 74.5186
630, 74.0182
620, 73.4482
610, 72.4137
600, 70.6122
590, 67.5395
580, 62.4403
570, 54.5689
560, 43.7816
550, 32.1459
540, 23.7313
530, 19.4263
520, 17.8282
510, 17.2104
500, 16.4549
490, 14.9673
480, 13.8479
470, 13.6035
460, 13.5467
450, 13.3516
440, 13.1488
430, 13.3215
420, 13.5047
410, 13.7
400, 13.892

File: 75-CsNaSbIBr Batch 3.3.Sample.Raw.csv
nm, %T
1200, 91.5542
1190, 91.5091
1180, 91.4574
1170, 91.4484
1160, 91.4413
1150, 91.4305
1140, 91.4028
1130, 91.4155
1120, 91.4086
1110, 91.4204
1100, 91.4272
1090, 91.4321
1080, 91.4268
1070, 91.4209
1060, 91.4336
1050, 91.4268
1040, 91.4427
1030, 91.4304
1020, 91.4494
1010, 91.455
1000, 91.4679
990, 91.4568
980, 91.4433
970, 91.4626
960, 91.4732
950, 91.5046
940, 91.4597
930, 91.4783
920, 91.4756
910, 91.4826
900, 91.4615
890, 91.4744
880, 91.4796
870, 91.4965
860, 91.4877
850, 91.3824
840, 91.228
830, 91.0842
820, 91.0109
810, 91.3437
800, 90.9471
790, 91.4688
780, 91.3562
770, 91.4247
760, 91.3435
750, 91.1617
740, 91.2008
730, 91.3017
720, 91.1314
710, 91.0251
700, 91.1175
690, 91.0644
680, 91.115
670, 91.014
660, 90.8741
650, 90.9051
640, 90.7954
630, 90.8063
620, 90.7898
610, 90.6571
600, 90.5056
590, 90.4296
580, 90.341
570, 90.1779
560, 90.0281
550, 89.7807
540, 89.5156
530, 89.0679
520, 88.4542
510, 87.2271
500, 84.7549
490, 79.4287
480, 69.6287
470, 55.4667
460, 41.2804
450, 31.8796
440, 27.429
430, 29.0355
420, 37.9531
410, 39.6664
400, 23.3277