Folder: campaign1/UV-Vis data/Transmission (part 5)

File: 54-1SbBr-9BiI.Sample.Raw.csv
nm, %T
1100, 80.2702
1095, 80.2546
1090, 80.1935
1085, 80.0961
1080, 80.0474
1075, 79.9855
1070, 79.926
1065, 79.9051
1060, 79.7899
1055, 79.7217
1050, 79.6954
1045, 79.5792
1040, 79.5335
1035, 79.4718
1030, 79.4117
1025, 79.3426
1020, 79.3004
1015, 79.2206
1010, 79.138
1005, 79.0946
1000, 79.0141
995, 78.9029
990, 78.8623
985, 78.7821
980, 78.694
975, 78.6498
970, 78.5833
965, 78.5136
960, 78.4717
955, 78.3984
950, 78.3382
945, 78.2483
940, 78.1796
935, 78.1048
930, 78.0371
925, 77.98
920, 77.9073
915, 77.8717
910, 77.784
905, 77.6904
900, 77.6468
895, 77.5398
890, 77.48
885, 77.4307
880, 77.3799
875, 77.2776
870, 77.2536
865, 77.1812
860, 77.1069
855, 77.1069
850, 77.1069
845, 77.1069
840, 77.1069
835, 77.1069
830, 77.1069
825, 77.1069
820, 77.1069
815, 77.1069
810, 77.1069
805, 77.1069
800, 77.1069
795, 77.1069
790, 77.1069
785, 77.1069
780, 77.1069
775, 77.1069
770, 77.1069
765, 76.9859
760, 77.1557
755, 77.3484
750, 77.4409
745, 77.6429
740, 77.7965
735, 77.8571
730, 78.0619
725, 78.0415
720, 78.1461
715, 78.2923
710, 78.3699
705, 78.4864
700, 78.5317
695, 78.5954
690, 78.5478
685, 78.0732
680, 75.5365
675, 75.3737
670, 75.4388
665, 75.4122
660, 75.3273
655, 75.3431
650, 75.3309
645, 75.3027
640, 75.3068
635, 75.4155
630, 75.4853
625, 75.4946
620, 75.4822
615, 75.4191
610, 75.3438
605, 75.1733
600, 74.8969
595, 74.417
590, 74.0017
585, 73.284
580, 72.3801
575, 71.2704
570, 69.9739
565, 68.5269
560, 66.6689
555, 64.0616
550, 61.3932
545, 58.4587
540, 55.3233
535, 52.0229
530, 48.6228
525, 45.201
520, 41.9787
515, 39.0005
510, 36.2426
505, 33.6659
500, 31.0898
495, 29.0285
490, 28.1611
485, 30.0596
480, 35.2421
475, 39.1729
470, 42.06
465, 43.1285
460, 42.2086
455, 39.6106
450, 36.0492
445, 32.0789
440, 29.0642
435, 26.33
430, 23.9118
425, 22.1312
420, 20.8203
415, 19.981
410, 19.7728
405, 19.5709
400, 19.39
395, 19.1891
390, 18.875
385, 18.5164
380, 18.1239
375, 18.1239
370, 18.1239
365, 18.1239
360, 18.1239
355, 18.1239
350, 18.1239
345, 18.1239
340, 18.1239
335, 18.1239
330, 18.1239
325, 18.1239
320, 18.1239
315, 18.1239
310, 18.1239
305, 18.1239
300, 18.1239

File: 55-2SbBr-8BiI-2nd.Sample.Raw.csv
nm, %T
1100, 82.3126
1095, 82.2503
1090, 82.1766
1085, 82.1286
1080, 82.0686
1075, 81.9931
1070, 81.9495
1065, 81.8931
1060, 81.8056
1055, 81.7342
1050, 81.695
1045, 81.6128
1040, 81.5747
1035, 81.4787
1030, 81.4463
1025, 81.3681
1020, 81.3008
1015, 81.2304
1010, 81.1446
1005, 81.114
1000, 81.0541
995, 80.9389
990, 80.879
985, 80.7965
980, 80.7151
975, 80.6602
970, 80.5931
965, 80.5039
960, 80.4443
955, 80.3592
950, 80.3304
945, 80.2347
940, 80.1593
935, 80.0952
930, 80.0008
925, 79.9429
920, 79.862
915, 79.8039
910, 79.7203
905, 79.6254
900, 79.5448
895, 79.4416
890, 79.3759
885, 79.2889
880, 79.2225
875, 79.112
870, 79.0726
865, 78.9656
860, 78.8804
855, 78.8804
850, 78.8804
845, 78.8804
840, 78.8804
835, 78.8804
830, 78.8804
825, 78.8804
820, 78.8804
815, 78.8804
810, 78.8804
805, 78.8804
800, 78.8804
795, 78.8804
790, 78.8804
785, 78.8804
780, 78.8804
775, 78.8804
770, 78.8804
765, 78.7566
760, 78.9263
755, 79.1071
750, 79.2019
745, 79.4087
740, 79.5658
735, 79.6279
730, 79.8374
725, 79.8169
720, 79.9238
715, 80.074
710, 80.1544
705, 80.2751
700, 80.3233
695, 80.3897
690, 80.3472
685, 79.5318
680, 75.4532
675, 75.1795
670, 75.0303
665, 74.8645
660, 74.748
655, 74.62
650, 74.4217
645, 74.2028
640, 74.0621
635, 73.8992
630, 73.6864
625, 73.4071
620, 73.0228
615, 72.5974
610, 72.0153
605, 71.3316
600, 70.4848
595, 69.3863
590, 68.1431
585, 66.6666
580, 64.895
575, 62.8225
570, 60.5448
565, 58.238
560, 55.6681
555, 52.4979
550, 49.5827
545, 46.8988
540, 44.3906
535, 42.1053
530, 40.0242
525, 38.185
520, 36.6428
515, 35.3721
510, 34.3117
505, 33.1093
500, 31.4366
495, 29.4081
490, 27.4908
485, 27.2692
480, 29.8101
475, 31.3076
470, 32.6634
465, 33.4053
460, 33.2097
455, 32.0541
450, 30.1984
445, 27.8542
440, 26.3337
435, 24.7404
430, 23.0944
425, 21.71
420, 20.5535
415, 19.5395
410, 19.3299
405, 19.1266
400, 18.9436
395, 18.741
390, 18.4257
385, 18.0647
380, 17.6689
375, 17.6689
370, 17.6689
365, 17.6689
360, 17.6689
355, 17.6689
350, 17.6689
345, 17.6689
340, 17.6689
335, 17.6689
330, 17.6689
325, 17.6689
320, 17.6689
315, 17.6689
310, 17.6689
305, 17.6689
300, 17.6689

File: 56-3SbBr-7BiI.Sample.Raw.csv
nm, %T
1100, 82.9861
1095, 82.9301
1090, 82.9
1085, 82.7904
1080, 82.7631
1075, 82.7001
1070, 82.6349
1065, 82.593
1060, 82.513
1055, 82.4215
1050, 82.393
1045, 82.3349
1040, 82.2518
1035, 82.1946
1030, 82.1573
1025, 82.0574
1020, 81.9961
1015, 81.9228
1010, 81.8503
1005, 81.8163
1000, 81.7371
995, 81.6263
990, 81.5474
985, 81.5074
980, 81.4161
975, 81.35
970, 81.2715
965, 81.204
960, 81.1272
955, 81.0578
950, 80.9893
945, 80.9123
940, 80.824
935, 80.7493
930, 80.6618
925, 80.6199
920, 80.5546
915, 80.4577
910, 80.3726
905, 80.2934
900, 80.2058
895, 80.106
890, 80.0546
885, 79.988
880, 79.9081
875, 79.8251
870, 79.7738
865, 79.6911
860, 79.6118
855, 79.6118
850, 79.6118
845, 79.6118
840, 79.6118
835, 79.6118
830, 79.6118
825, 79.6118
820, 79.6118
815, 79.6118
810, 79.6118
805, 79.6118
800, 79.6118
795, 79.6118
790, 79.6118
785, 79.6118
780, 79.6118
775, 79.6118
770, 79.6118
765, 79.4868
760, 79.6566
755, 79.8325
750, 79.9282
745, 80.1369
740, 80.2955
735, 80.3582
730, 80.5697
725, 80.5491
720, 80.657
715, 80.8088
710, 80.8904
705, 81.0128
700, 81.0623
695, 81.1297
690, 81.0894
685, 80.1907
680, 75.9281
675, 75.6039
670, 75.3235
665, 75.2449
660, 75.1162
655, 74.9935
650, 74.7881
645, 74.605
640, 74.4434
635, 74.2747
630, 74.0432
625, 73.7429
620, 73.3869
615, 72.8704
610, 72.3484
605, 71.6069
600, 70.6676
595, 69.5387
590, 68.1802
585, 66.4008
580, 64.3748
575, 62.0635
570, 59.4425
565, 56.7292
560, 53.8142
555, 50.1869
550, 46.9671
545, 44.132
540, 41.6919
535, 39.7368
530, 38.246
525, 37.2703
520, 36.7407
515, 36.5682
510, 36.6244
505, 36.4538
500, 35.5497
495, 34.0374
490, 32.2049
485, 31.6177
480, 33.2406
475, 33.7317
470, 34.1242
465, 34.2711
460, 33.7226
455, 32.6299
450, 31.2249
445, 29.413
440, 28.6018
435, 27.5705
430, 26.3913
425, 25.1284
420, 24.0824
415, 23.1433
410, 22.9454
405, 22.7535
400, 22.588
395, 22.3993
390, 22.094
385, 21.7521
380, 21.3835
375, 21.3835
370, 21.3835
365, 21.3835
360, 21.3835
355, 21.3835
350, 21.3835
345, 21.3835
340, 21.3835
335, 21.3835
330, 21.3835
325, 21.3835
320, 21.3835
315, 21.3835
310, 21.3835
305, 21.3835
300, 21.3835

File: 57-4SbBr-6BiI.Sample.Raw.csv
nm, %T
1100, 84.9691
1095, 84.9249
1090, 84.9048
1085, 84.8713
1080, 84.8464
1075, 84.8025
1070, 84.7853
1065, 84.7451
1060, 84.6811
1055, 84.6468
1050, 84.6637
1045, 84.5863
1040, 84.5517
1035, 84.5376
1030, 84.5109
1025, 84.4528
1020, 84.4441
1015, 84.393
1010, 84.3656
1005, 84.3774
1000, 84.3157
995, 84.2457
990, 84.254
985, 84.2109
980, 84.166
975, 84.1541
970, 84.1292
965, 84.1004
960, 84.0948
955, 84.0941
950, 84.0912
945, 84.0439
940, 84.0532
935, 84.052
930, 84.0271
925, 84.0539
920, 84.0141
915, 83.9931
910, 83.9924
905, 83.9397
900, 83.8587
895, 83.7736
890, 83.728
885, 83.651
880, 83.5622
875, 83.4694
870, 83.4297
865, 83.345
860, 83.2459
855, 83.2459
850, 83.2459
845, 83.2459
840, 83.2459
835, 83.2459
830, 83.2459
825, 83.2459
820, 83.2459
815, 83.2459
810, 83.2459
805, 83.2459
800, 83.2459
795, 83.2459
790, 83.2459
785, 83.2459
780, 83.2459
775, 83.2459
770, 83.2459
765, 83.1152
760, 83.285
755, 83.4366
750, 83.5367
745, 83.7552
740, 83.9213
735, 83.9868
730, 84.2081
725, 84.1874
720, 84.2998
715, 84.4599
710, 84.5473
705, 84.6782
700, 84.7337
695, 84.8065
690, 84.7767
685, 84.0521
680, 80.238
675, 80.0418
670, 79.9074
665, 79.7625
660, 79.5277
655, 79.4839
650, 79.2986
645, 79.0484
640, 78.8079
635, 78.5853
630, 78.4184
625, 78.1435
620, 77.8044
615, 77.3313
610, 76.8453
605, 76.0775
600, 75.1988
595, 74.0349
590, 72.7035
585, 70.9954
580, 68.9595
575, 66.5807
570, 63.9686
565, 61.1757
560, 58.0445
555, 54.1534
550, 50.7029
545, 47.5244
540, 44.6862
535, 42.2824
530, 40.4682
525, 39.2443
520, 38.6584
515, 38.4817
510, 38.7669
505, 38.8879
500, 38.3972
495, 37.2694
490, 35.7814
485, 35.2844
480, 36.8958
475, 37.1882
470, 37.3913
465, 37.2333
460, 36.4883
455, 35.358
450, 34.1248
445, 32.5902
440, 32.0909
435, 31.4802
430, 30.6854
425, 30.0377
420, 29.3562
415, 28.6206
410, 28.4403
405, 28.2657
400, 28.1268
395, 27.9592
390, 27.6693
385, 27.3563
380, 27.0292
375, 27.0292
370, 27.0292
365, 27.0292
360, 27.0292
355, 27.0292
350, 27.0292
345, 27.0292
340, 27.0292
335, 27.0292
330, 27.0292
325, 27.0292
320, 27.0292
315, 27.0292
310, 27.0292
305, 27.0292
300, 27.0292

File: 58-5SbBr-5BiI.Sample.Raw.csv
nm, %T
1100, 85.9621
1095, 85.9482
1090, 85.9044
1085, 85.8332
1080, 85.8091
1075, 85.7518
1070, 85.7
1065, 85.6758
1060, 85.6033
1055, 85.5461
1050, 85.5366
1045, 85.4707
1040, 85.4041
1035, 85.354
1030, 85.3112
1025, 85.2382
1020, 85.2135
1015, 85.1412
1010, 85.1057
1005, 85.056
1000, 84.996
995, 84.8905
990, 84.8513
985, 84.8055
980, 84.7276
975, 84.6471
970, 84.6069
965, 84.5381
960, 84.4746
955, 84.4383
950, 84.355
945, 84.2832
940, 84.2442
935, 84.1435
930, 84.0718
925, 84.0442
920, 83.9581
915, 83.9022
910, 83.8254
905, 83.7439
900, 83.6558
895, 83.5561
890, 83.4968
885, 83.4152
880, 83.3348
875, 83.2292
870, 83.1551
865, 83.0795
860, 82.979
855, 82.979
850, 82.979
845, 82.979
840, 82.979
835, 82.979
830, 82.979
825, 82.979
820, 82.979
815, 82.979
810, 82.979
805, 82.979
800, 82.979
795, 82.979
790, 82.979
785, 82.979
780, 82.979
775, 82.979
770, 82.979
765, 82.8487
760, 83.0185
755, 83.1718
750, 83.2716
745, 83.4894
740, 83.6549
735, 83.7203
730, 83.9408
725, 83.9201
720, 84.0322
715, 84.1917
710, 84.2787
705, 84.409
700, 84.464
695, 84.5364
690, 84.5058
685, 83.6409
680, 79.352
675, 79.005
670, 78.8649
665, 78.7184
660, 78.5694
655, 78.2596
650, 78.0861
645, 77.9607
640, 77.8003
635, 77.7016
630, 77.5612
625, 77.3526
620, 77.0322
615, 76.769
610, 76.3873
605, 75.8502
600, 75.26
595, 74.468
590, 73.6569
585, 72.4952
580, 71.1288
575, 69.4677
570, 67.4933
565, 65.3063
560, 62.5844
555, 59.0985
550, 55.46
545, 51.786
540, 48.0816
535, 44.6216
530, 41.4985
525, 38.9314
520, 37.1079
515, 36.0618
510, 35.6384
505, 35.434
500, 34.7841
495, 33.6384
490, 32.2162
485, 31.7919
480, 33.3597
475, 33.7108
470, 33.8767
465, 33.6915
460, 32.8408
455, 31.5427
450, 29.9447
445, 28.0828
440, 27.3431
435, 26.4719
430, 25.489
425, 24.4127
420, 23.4557
415, 22.5349
410, 22.3349
405, 22.1411
400, 21.9726
395, 21.7816
390, 21.4746
385, 21.1295
380, 20.7563
375, 20.7563
370, 20.7563
365, 20.7563
360, 20.7563
355, 20.7563
350, 20.7563
345, 20.7563
340, 20.7563
335, 20.7563
330, 20.7563
325, 20.7563
320, 20.7563
315, 20.7563
310, 20.7563
305, 20.7563
300, 20.7563

File: 59-6SbBr-4BiI.Sample.Raw.csv
nm, %T
1100, 86.7564
1095, 86.6855
1090, 86.6639
1085, 86.6222
1080, 86.5842
1075, 86.5262
1070, 86.5241
1065, 86.4768
1060, 86.3796
1055, 86.3639
1050, 86.3296
1045, 86.2327
1040, 86.2149
1035, 86.1758
1030, 86.1178
1025, 86.0821
1020, 86.0451
1015, 85.9693
1010, 85.9278
1005, 85.9046
1000, 85.8455
995, 85.7652
990, 85.7148
985, 85.654
980, 85.604
975, 85.5395
970, 85.5088
965, 85.4408
960, 85.4148
955, 85.3496
950, 85.3075
945, 85.2539
940, 85.1952
935, 85.1237
930, 85.0891
925, 85.0789
920, 85.0144
915, 84.9858
910, 84.9505
905, 84.9045
900, 84.868
895, 84.8188
890, 84.8117
885, 84.8044
880, 84.7679
875, 84.7421
870, 84.7517
865, 84.7046
860, 84.6602
855, 84.6602
850, 84.6602
845, 84.6602
840, 84.6602
835, 84.6602
830, 84.6602
825, 84.6602
820, 84.6602
815, 84.6602
810, 84.6602
805, 84.6602
800, 84.6602
795, 84.6602
790, 84.6602
785, 84.6602
780, 84.6602
775, 84.6602
770, 84.6602
765, 84.5273
760, 84.6971
755, 84.8392
750, 84.941
745, 85.1633
740, 85.3323
735, 85.399
730, 85.624
725, 85.6032
720, 85.7174
715, 85.8808
710, 85.9705
705, 86.1047
700, 86.1626
695, 86.2374
690, 86.2116
685, 85.2819
680, 80.6174
675, 80.4899
670, 80.3018
665, 80.0982
660, 79.8951
655, 79.7305
650, 79.5571
645, 79.4433
640, 79.3038
635, 79.1318
630, 78.9996
625, 78.789
620, 78.6751
615, 78.4101
610, 78.1346
605, 77.7413
600, 77.296
595, 76.6755
590, 76.1294
585, 75.4257
580, 74.3829
575, 73.0985
570, 71.6804
565, 69.9285
560, 67.7494
555, 64.6614
550, 61.3678
545, 57.7806
540, 53.9349
535, 49.9743
530, 46.0281
525, 42.3961
520, 39.3336
515, 36.905
510, 35.1416
505, 33.6505
500, 31.9667
495, 29.9783
490, 27.9014
485, 27.0908
480, 28.6637
475, 28.9915
470, 29.2619
465, 29.1669
460, 28.4321
455, 27.0817
450, 25.4847
445, 23.5931
440, 22.818
435, 21.7912
430, 20.6189
425, 19.6194
420, 18.6117
415, 17.6926
410, 17.477
405, 17.2679
400, 17.0759
395, 16.8662
390, 16.5457
385, 16.175
380, 15.7652
375, 15.7652
370, 15.7652
365, 15.7652
360, 15.7652
355, 15.7652
350, 15.7652
345, 15.7652
340, 15.7652
335, 15.7652
330, 15.7652
325, 15.7652
320, 15.7652
315, 15.7652
310, 15.7652
305, 15.7652
300, 15.7652

File: 60-7SbBr-3BiI.Sample.Raw.csv
nm, %T
1100, 89.7416
1095, 89.6956
1090, 89.7071
1085, 89.6629
1080, 89.6683
1075, 89.6034
1070, 89.6236
1065, 89.5848
1060, 89.544
1055, 89.5241
1050, 89.4995
1045, 89.4385
1040, 89.4523
1035, 89.4191
1030, 89.4076
1025, 89.3938
1020, 89.3568
1015, 89.3272
1010, 89.3192
1005, 89.2863
1000, 89.2511
995, 89.2021
990, 89.1708
985, 89.1248
980, 89.1006
975, 89.0677
970, 89.0203
965, 88.9766
960, 88.9652
955, 88.9236
950, 88.8959
945, 88.8607
940, 88.8198
935, 88.7593
930, 88.7066
925, 88.7008
920, 88.6448
915, 88.6206
910, 88.5805
905, 88.5367
900, 88.4767
895, 88.3957
890, 88.3711
885, 88.3232
880, 88.3113
875, 88.2319
870, 88.1954
865, 88.1164
860, 88.0298
855, 88.0298
850, 88.0298
845, 88.0298
840, 88.0298
835, 88.0298
830, 88.0298
825, 88.0298
820, 88.0298
815, 88.0298
810, 88.0298
805, 88.0298
800, 88.0298
795, 88.0298
790, 88.0298
785, 88.0298
780, 88.0298
775, 88.0298
770, 88.0298
765, 87.8916
760, 88.0614
755, 88.1809
750, 88.2868
745, 88.5183
740, 88.694
735, 88.7635
730, 88.9975
725, 88.9766
720, 89.095
715, 89.266
710, 89.3612
705, 89.5033
700, 89.5668
695, 89.6465
690, 89.6305
685, 88.9333
680, 85.1508
675, 84.9372
670, 84.8406
665, 84.6796
660, 84.6092
655, 84.4921
650, 84.3161
645, 84.1207
640, 83.9282
635, 83.8544
630, 83.7668
625, 83.6688
620, 83.5839
615, 83.3897
610, 83.3029
605, 82.9966
600, 82.8108
595, 82.439
590, 82.1916
585, 81.8351
580, 81.4064
575, 80.9842
570, 80.4501
565, 79.8217
560, 78.921
555, 77.5712
550, 76.0448
545, 74.2106
540, 72.0832
535, 69.6104
530, 66.7952
525, 63.7261
520, 60.6556
515, 57.6687
510, 54.8809
505, 52.1646
500, 49.2162
495, 46.054
490, 43.0491
485, 41.2313
480, 41.5492
475, 41.2054
470, 41.0221
465, 40.7376
460, 40.0025
455, 38.7461
450, 37.2944
445, 35.6352
440, 34.6861
435, 33.4939
430, 32.2148
425, 30.77
420, 29.3478
415, 27.8728
410, 27.6901
405, 27.5132
400, 27.3707
395, 27.2002
390, 26.9082
385, 26.5912
380, 26.2584
375, 26.2584
370, 26.2584
365, 26.2584
360, 26.2584
355, 26.2584
350, 26.2584
345, 26.2584
340, 26.2584
335, 26.2584
330, 26.2584
325, 26.2584
320, 26.2584
315, 26.2584
310, 26.2584
305, 26.2584
300, 26.2584

File: 61-8SbBr-2BiI.Sample.Raw.csv
nm, %T
1100, 89.9482
1095, 89.9253
1090, 89.9241
1085, 89.8973
1080, 89.87
1075, 89.8497
1070, 89.8396
1065, 89.823
1060, 89.7905
1055, 89.7601
1050, 89.7713
1045, 89.7143
1040, 89.7
1035, 89.684
1030, 89.664
1025, 89.6498
1020, 89.615
1015, 89.5715
1010, 89.5881
1005, 89.5427
1000, 89.4989
995, 89.4681
990, 89.4634
985, 89.414
980, 89.396
975, 89.3561
970, 89.3266
965, 89.3134
960, 89.2853
955, 89.2483
950, 89.2613
945, 89.2188
940, 89.1921
935, 89.1778
930, 89.1285
925, 89.133
920, 89.1137
915, 89.0449
910, 89.0423
905, 89.0182
900, 88.9649
895, 88.9066
890, 88.9097
885, 88.8914
880, 88.8647
875, 88.8165
870, 88.8041
865, 88.7652
860, 88.7098
855, 88.7098
850, 88.7098
845, 88.7098
840, 88.7098
835, 88.7098
830, 88.7098
825, 88.7098
820, 88.7098
815, 88.7098
810, 88.7098
805, 88.7098
800, 88.7098
795, 88.7098
790, 88.7098
785, 88.7098
780, 88.7098
775, 88.7098
770, 88.7098
765, 88.5705
760, 88.7403
755, 88.8552
750, 88.962
745, 89.1953
740, 89.3724
735, 89.4424
730, 89.6783
725, 89.6574
720, 89.7766
715, 89.9492
710, 90.0454
705, 90.1891
700, 90.2537
695, 90.3345
690, 90.3204
685, 89.707
680, 86.2544
675, 86.2019
670, 86.1274
665, 85.9805
660, 85.7297
655, 85.6714
650, 85.5848
645, 85.4318
640, 85.2896
635, 85.1843
630, 85.1171
625, 84.967
620, 84.8801
615, 84.7747
610, 84.7115
605, 84.4623
600, 84.3178
595, 83.9912
590, 83.8447
585, 83.6362
580, 83.3739
575, 83.1151
570, 82.8468
565, 82.585
560, 82.1031
555, 81.3966
550, 80.7507
545, 79.8943
540, 78.9052
535, 77.6875
530, 76.2296
525, 74.4579
520, 72.5025
515, 70.2737
510, 67.9016
505, 65.1628
500, 61.8564
495, 58.0875
490, 54.2554
485, 51.1458
480, 49.8647
475, 48.1584
470, 46.7751
465, 45.5799
460, 44.1587
455, 42.5776
450, 40.8761
445, 39.1066
440, 38.0818
435, 36.8659
430, 35.4463
425, 33.7512
420, 32.029
415, 30.076
410, 29.9005
405, 29.7305
400, 29.5987
395, 29.4367
390, 29.1508
385, 28.8456
380, 28.5294
375, 28.5294
370, 28.5294
365, 28.5294
360, 28.5294
355, 28.5294
350, 28.5294
345, 28.5294
340, 28.5294
335, 28.5294
330, 28.5294
325, 28.5294
320, 28.5294
315, 28.5294
310, 28.5294
305, 28.5294
300, 28.5294

File: 62-9SbBr-1BiI.Sample.Raw.csv
nm, %T
1100, 91.2381
1095, 91.1962
1090, 91.1819
1085, 91.1934
1080, 91.1504
1075, 91.1157
1070, 91.1198
1065, 91.1297
1060, 91.0674
1055, 91.0716
1050, 91.0822
1045, 91.0361
1040, 91.0298
1035, 91.0092
1030, 90.9852
1025, 90.9729
1020, 90.9697
1015, 90.9192
1010, 90.9053
1005, 90.9235
1000, 90.8671
995, 90.8172
990, 90.8253
985, 90.7895
980, 90.742
975, 90.7348
970, 90.7109
965, 90.6726
960, 90.6763
955, 90.6085
950, 90.5791
945, 90.5644
940, 90.5385
935, 90.4741
930, 90.4465
925, 90.4446
920, 90.3657
915, 90.346
910, 90.2917
905, 90.2025
900, 90.1871
895, 90.1089
890, 90.0951
885, 90.0441
880, 89.9783
875, 89.8729
870, 89.7777
865, 89.6702
860, 89.5607
855, 89.5607
850, 89.5607
845, 89.5607
840, 89.5607
835, 89.5607
830, 89.5607
825, 89.5607
820, 89.5607
815, 89.5607
810, 89.5607
805, 89.5607
800, 89.5607
795, 89.5607
790, 89.5607
785, 89.5607
780, 89.5607
775, 89.5607
770, 89.5607
765, 89.4201
760, 89.5899
755, 89.6991
750, 89.8069
745, 90.0425
740, 90.2214
735, 90.292
730, 90.5302
725, 90.5092
720, 90.6296
715, 90.8041
710, 90.9016
705, 91.0473
700, 91.1134
695, 91.1954
690, 91.1838
685, 90.6405
680, 87.3986
675, 87.254
670, 87.189
665, 87.057
660, 86.8556
655, 86.6767
650, 86.5972
645, 86.4114
640, 86.3076
635, 86.12
630, 86.0968
625, 85.9174
620, 85.7896
615, 85.6664
610, 85.5711
605, 85.3582
600, 85.1725
595, 84.8797
590, 84.7121
585, 84.5091
580, 84.2516
575, 83.9626
570, 83.7114
565, 83.482
560, 83.1341
555, 82.6871
550, 82.2605
545, 81.7805
540, 81.2675
535, 80.7305
530, 80.0883
525, 79.2588
520, 78.4106
515, 77.3215
510, 76.0169
505, 74.2784
500, 71.8068
495, 68.5562
490, 64.7299
485, 60.811
480, 57.753
475, 53.9889
470, 50.4794
465, 47.2164
460, 44.1528
455, 41.5078
450, 39.4393
445, 37.7447
440, 37.0296
435, 36.2609
430, 35.0877
425, 33.5387
420, 31.4637
415, 29.0727
410, 28.894
405, 28.7208
400, 28.5841
395, 28.4182
390, 28.1296
385, 27.819
380, 27.4952
375, 27.4952
370, 27.4952
365, 27.4952
360, 27.4952
355, 27.4952
350, 27.4952
345, 27.4952
340, 27.4952
335, 27.4952
330, 27.4952
325, 27.4952
320, 27.4952
315, 27.4952
310, 27.4952
305, 27.4952
300, 27.4952

File: 63-7 - MA2Cu(Br2Cl2) with CB.csv
nm, %T
1100, 87.0557
1090, 87.0316
1080, 86.9868
1070, 86.9219
1060, 86.834
1050, 86.8228
1040, 86.7539
1030, 86.6892
1020, 86.5937
1010, 86.5201
1000, 86.4411
990, 86.3588
980, 86.2574
970, 86.1913
960, 86.1096
950, 86.0083
940, 85.9594
930, 85.8915
920, 85.7893
910, 85.7429
900, 85.7064
890, 85.6508
880, 85.628
870, 85.5513
860, 85.5135
850, 85.7084
840, 86.0007
830, 86.3468
820, 86.7028
810, 87.0252
800, 87.2702
790, 87.394
780, 86.196
770, 85.5977
760, 85.6988
750, 86.1353
740, 86.3888
730, 86.639
720, 86.9147
710, 87.2268
700, 87.2855
690, 87.4028
680, 87.5314
670, 87.4258
660, 87.4046
650, 87.4265
640, 87.2787
630, 87.1557
620, 86.9144
610, 86.4473
600, 85.9229
590, 85.1236
580, 84.3014
570, 83.2666
560, 81.8476
550, 80.1572
540, 78.2149
530, 75.9562
520, 73.3043
510, 70.034
500, 66.0309
490, 61.4961
480, 56.4892
470, 52.1624
460, 48.686
450, 46.9716
440, 46.3612
430, 46.1116
420, 45.8311
410, 45.9868
400, 46.9453
390, 49.1263
380, 51.6652
370, 51.6652
360, 51.6652
350, 51.6652
340, 51.6652
330, 51.6652
320, 51.6652
310, 51.6652
300, 51.6652

File: 64-9 - MA2CuCl4 with CB.csv
nm, %T
1100, 89.079
1090, 89.0314
1080, 88.9806
1070, 88.9042
1060, 88.8198
1050, 88.7788
1040, 88.7018
1030, 88.6584
1020, 88.5205
1010, 88.4651
1000, 88.3646
990, 88.3076
980, 88.208
970, 88.1382
960, 88.0499
950, 87.9593
940, 87.8881
930, 87.8556
920, 87.8075
910, 87.7176
900, 87.6763
890, 87.619
880, 87.5826
870, 87.5279
860, 87.4814
850, 87.5786
840, 87.729
830, 87.9075
820, 88.0888
810, 88.2476
800, 88.3586
790, 88.3965
780, 87.3828
770, 86.726
760, 86.7744
750, 87.0214
740, 87.2499
730, 87.2348
720, 87.3614
710, 87.6284
700, 87.4082
690, 87.4621
680, 87.443
670, 87.3396
660, 87.3437
650, 87.2998
640, 87.2094
630, 87.1456
620, 87.1295
610, 86.9917
600, 87.0091
590, 86.893
580, 86.8392
570, 86.7639
560, 86.6382
550, 86.5071
540, 86.346
530, 86.1403
520, 85.7887
510, 85.2519
500, 84.4021
490, 83.1717
480, 80.8219
470, 77.4449
460, 73.0239
450, 68.3432
440, 64.0523
430, 58.9204
420, 50.2426
410, 37.8396
400, 26.2883
390, 20.1486
380, 19.6759
370, 19.6759
360, 19.6759
350, 19.6759
340, 19.6759
330, 19.6759
320, 19.6759
310, 19.6759
300, 19.6759

File: 65-CsAgBiBr_Sample10_edited.csv
Wavelength [nm],Transmittance %
300,52.803
310,52.803
320,52.803
330,52.803
340,56.075
350,57.821
360,59.172
370,58.822
380,58.759
390,59.201
400,59.71
410,60.183
420,60.501
430,60.387
440,60.343
450,60.599
460,61.339
470,62.257
480,63.257
490,64.542
500,66.366
510,69.046
520,72.086
530,74.861
540,76.954
550,78.256
560,79.001
570,79.361
580,79.627
590,79.881
600,80.066
610,80.257
620,80.386
630,80.528
640,80.653
650,80.802
660,80.852
670,80.873
680,81.024
690,81.085
700,81.147
710,81.313
720,81.254
730,81.405
740,81.535
750,81.502
760,81.688
770,81.691
780,81.582
790,81.612
800,81.835
810,81.693
820,81.666
830,81.518
840,81.46
850,81.901
860,82.014
870,82.122
880,82.25
890,82.344
900,82.418
910,82.499
920,82.575
930,82.67
940,82.727
950,82.755
960,82.809
970,82.844
980,82.923
990,82.951
1000,83.003
1010,83.068
1020,83.088
1030,83.163
1040,83.237
1050,83.259
1060,83.316
1070,83.33
1080,83.407
1090,83.458

File: 66-CsAgSbBr_Sample11_edited.csv
Wavelength [nm],Transmittance %
300,49.303
310,43.413
320,49.303
330,49.303
340,51.543
350,52.36
360,53.282
370,53.106
380,53.134
390,53.245
400,53.305
410,53.499
420,53.456
430,53.467
440,53.401
450,53.45
460,53.824
470,55.045
480,56.894
490,58.782
500,60.644
510,62.712
520,64.884
530,67.16
540,69.397
550,71.378
560,73.037
570,74.337
580,75.207
590,75.924
600,76.256
610,76.602
620,76.833
630,77.068
640,77.204
650,77.341
660,77.393
670,77.5
680,77.707
690,77.787
700,77.915
710,78.043
720,78.092
730,78.249
740,78.346
750,78.356
760,78.581
770,78.739
780,78.64
790,78.714
800,78.883
810,78.847
820,78.793
830,78.202
840,78.879
850,79.168
860,79.307
870,79.353
880,79.436
890,79.483
900,79.532
910,79.58
920,79.698
930,79.78
940,79.868
950,79.957
960,80.07
970,80.123
980,80.192
990,80.266
1000,80.311
1010,80.396
1020,80.438
1030,80.519
1040,80.594
1050,80.658
1060,80.721
1070,80.746
1080,80.835
1090,80.906

File: 67-RbAgBiI 150C.Sample.Raw.csv
nm, %T
1200, 83.9068
1190, 83.8482
1180, 83.7964
1170, 83.7475
1160, 83.6984
1150, 83.6726
1140, 83.6224
1130, 83.5809
1120, 83.5364
1110, 83.5175
1100, 83.4714
1090, 83.4342
1080, 83.3945
1070, 83.3399
1060, 83.3165
1050, 83.2682
1040, 83.2379
1030, 83.2017
1020, 83.1569
1010, 83.1061
1000, 83.092
990, 83.0408
980, 82.9653
970, 82.9445
960, 82.9014
950, 82.8469
940, 82.7658
930, 82.7134
920, 82.6549
910, 82.6021
900, 82.537
890, 82.4663
880, 82.3761
870, 82.3505
860, 82.2351
850, 81.9958
840, 81.6579
830, 81.3292
820, 81.1176
810, 81.2979
800, 81.4972
790, 81.7718
780, 81.4062
770, 81.3766
760, 81.2349
750, 81.0257
740, 80.8658
730, 80.6964
720, 80.5514
710, 80.2855
700, 80.1168
690, 79.7429
680, 79.6247
670, 79.2557
660, 78.9119
650, 78.6321
640, 78.2528
630, 77.8745
620, 77.307
610, 76.3136
600, 74.5484
590, 71.4857
580, 66.8908
570, 61.5188
560, 56.0984
550, 49.615
540, 41.0965
530, 30.9305
520, 21.8884
510, 16.1234
500, 13.2463
490, 11.8745
480, 12.3364
470, 14.5567
460, 15.959
450, 14.7355
440, 12.894
430, 11.8845
420, 11.2488
410, 10.69
400, 9.951992

File: 68-CsNaBiI batch 1.2.Sample.Raw.csv
nm, %T
1200, 81.5184
1190, 81.3826
1180, 81.2492
1170, 81.1357
1160, 81.021
1150, 80.8958
1140, 80.7886
1130, 80.6719
1120, 80.5311
1110, 80.4243
1100, 80.2954
1090, 80.1907
1080, 80.0607
1070, 79.9176
1060, 79.8144
1050, 79.7003
1040, 79.577
1030, 79.4457
1020, 79.3185
1010, 79.2116
1000, 79.1054
990, 78.9894
980, 78.8636
970, 78.771
960, 78.6701
950, 78.5675
940, 78.4646
930, 78.3733
920, 78.2769
910, 78.1777
900, 78.0778
890, 77.9583
880, 77.884
870, 77.7878
860, 77.7196
850, 77.4698
840, 77.1098
830, 76.7676
820, 76.5712
810, 77.0729
800, 77.2338
790, 77.7693
780, 77.3202
770, 77.583
760, 77.6038
750, 77.4559
740, 77.6736
730, 77.5864
720, 77.6186
710, 77.7499
700, 77.8193
690, 77.8908
680, 78.1967
670, 78.2776
660, 78.433
650, 78.7073
640, 78.8666
630, 79.1439
620, 79.4091
610, 79.575
600, 79.4796
590, 78.957
580, 77.6311
570, 74.8615
560, 70.0748
550, 62.9152
540, 54.3976
530, 45.3619
520, 36.5445
510, 28.4216
500, 23.4935
490, 29.039
480, 45.8919
470, 50.4716
460, 41.6141
450, 30.8027
440, 22.7935
430, 18.5907
420, 16.946
410, 16.5502
400, 16.1607