Folder: campaign1/UV-Vis data/Transmission (part 4)

File: 35-BiI-2nd.Sample.Raw.csv
nm, %T
1100, 80.1547
1095, 80.1015
1090, 80.0465
1085, 79.9754
1080, 79.9152
1075, 79.8397
1070, 79.8037
1065, 79.7799
1060, 79.6731
1055, 79.5896
1050, 79.5745
1045, 79.4734
1040, 79.4399
1035, 79.3744
1030, 79.3073
1025, 79.219
1020, 79.1942
1015, 79.0975
1010, 79.042
1005, 79.0052
1000, 78.9207
995, 78.8305
990, 78.7718
985, 78.7087
980, 78.6335
975, 78.5934
970, 78.5221
965, 78.4471
960, 78.401
955, 78.3338
950, 78.2947
945, 78.2586
940, 78.1914
935, 78.1238
930, 78.0504
925, 78.0173
920, 77.9502
915, 77.889
910, 77.8376
905, 77.7852
900, 77.7138
895, 77.6193
890, 77.5703
885, 77.5081
880, 77.4712
875, 77.381
870, 77.3467
865, 77.3135
860, 77.2469
855, 77.2469
850, 77.2469
845, 77.2469
840, 77.2469
835, 77.2469
830, 77.2469
825, 77.2469
820, 77.2469
815, 77.2469
810, 77.2469
805, 77.2469
800, 77.2469
795, 77.2469
790, 77.2469
785, 77.2469
780, 77.2469
775, 77.2469
770, 77.2469
765, 77.1256
760, 77.2954
755, 77.4872
750, 77.5799
745, 77.7823
740, 77.9361
735, 77.9969
730, 78.202
725, 78.1816
720, 78.2864
715, 78.4329
710, 78.5107
705, 78.6276
700, 78.6731
695, 78.737
690, 78.6898
685, 78.2385
680, 75.7758
675, 75.6483
670, 75.7306
665, 75.7631
660, 75.7887
655, 75.818
650, 75.857
645, 75.8369
640, 75.9425
635, 76.0821
630, 76.1451
625, 76.2733
620, 76.3935
615, 76.5402
610, 76.5446
605, 76.5228
600, 76.4419
595, 76.2446
590, 76.1024
585, 75.704
580, 75.127
575, 74.3313
570, 73.2329
565, 71.7994
560, 69.7164
555, 66.7227
550, 63.2827
545, 59.556
540, 55.4664
535, 51.1189
530, 46.6661
525, 42.2533
520, 38.0202
515, 34.0265
510, 30.4576
505, 27.3364
500, 25.0937
495, 25.0726
490, 28.9118
485, 37.0197
480, 46.3454
475, 50.8253
470, 51.3224
465, 48.7874
460, 44.4124
455, 39.1328
450, 33.7846
445, 28.7478
440, 25.5935
435, 23.1124
430, 21.3496
425, 20.1734
420, 19.5282
415, 19.1394
410, 18.9285
405, 18.7239
400, 18.539
395, 18.3349
390, 18.0184
385, 17.6553
380, 17.2565
375, 17.2565
370, 17.2565
365, 17.2565
360, 17.2565
355, 17.2565
350, 17.2565
345, 17.2565
340, 17.2565
335, 17.2565
330, 17.2565
325, 17.2565
320, 17.2565
315, 17.2565
310, 17.2565
305, 17.2565
300, 17.2565

File: 36-Cs3Sb2I9.Sample.Raw.csv
nm, %T
900, 89.4555
895, 89.3824
890, 89.3332
885, 89.2401
880, 89.206
875, 89.0913
870, 89.0234
865, 88.9247
860, 89.0845
855, 89.3362
850, 89.6351
845, 89.9365
840, 90.1955
835, 90.3674
830, 90.4074
825, 88.353
820, 87.6586
815, 88.1281
810, 88.1987
805, 88.2457
800, 88.0149
795, 87.7958
790, 87.6918
785, 87.4425
780, 87.6559
775, 87.6199
770, 87.5846
765, 87.351
760, 87.1732
755, 87.3244
750, 86.9527
745, 86.9635
740, 86.691
735, 86.5748
730, 86.27
725, 86.3195
720, 86.1176
715, 85.9041
710, 85.7549
705, 85.6054
700, 85.2789
695, 85.1371
690, 84.9208
685, 84.6973
680, 84.459
675, 84.1961
670, 83.9448
665, 83.6274
660, 83.328
655, 82.9833
650, 82.6786
645, 82.3847
640, 81.8895
635, 81.4771
630, 80.9848
625, 80.4515
620, 79.7729
615, 79.0741
610, 78.116
605, 76.8967
600, 75.3992
595, 73.4734
590, 71.1971
585, 68.6949
580, 66.0812
575, 63.4284
570, 61.0735
565, 59.0886
560, 57.3734
555, 55.5654
550, 53.8736
545, 52.0016
540, 49.8726
535, 47.4147
530, 44.5598
525, 41.5045
520, 38.1784
515, 34.7502
510, 31.2236
505, 27.7781
500, 24.4082
495, 21.2964
490, 18.4155
485, 15.9384
480, 14.1847
475, 12.9667
470, 12.4064
465, 12.3166
460, 12.4194
455, 12.3702
450, 12.0651
445, 11.5308
440, 10.9555
435, 10.3122
430, 9.776547
425, 9.377198
420, 9.008896
415, 8.680277
410, 8.253551
405, 7.645010
400, 6.859765

File: 37-Rb3Bi2I9.Sample.Raw.csv
nm, %T
900, 82.4148
895, 82.4079
890, 82.4194
885, 82.3795
880, 82.3954
875, 82.3782
870, 82.3906
865, 82.355
860, 82.2989
855, 82.2206
850, 82.1277
845, 82.0279
840, 81.9287
835, 81.8378
830, 81.7627
825, 81.711
820, 81.757
815, 82.0701
810, 82.0678
805, 81.8798
800, 82.0386
795, 82.2205
790, 82.4735
785, 82.4018
780, 82.4176
775, 82.4987
770, 82.497
765, 82.3137
760, 82.1095
755, 82.2566
750, 82.1706
745, 82.2254
740, 82.2076
735, 82.1417
730, 81.9994
725, 82.0873
720, 82.103
715, 82.0858
710, 81.9525
705, 82.0676
700, 81.8957
695, 81.9019
690, 81.677
685, 81.6621
680, 81.6546
675, 81.668
670, 81.6187
665, 81.5941
660, 81.4171
655, 81.2795
650, 81.2325
645, 81.2268
640, 81.1037
635, 80.9156
630, 80.8487
625, 80.7365
620, 80.6181
615, 80.5251
610, 80.3235
605, 80.0815
600, 79.8385
595, 79.5504
590, 79.0143
585, 78.3885
580, 77.6476
575, 76.5419
570, 75.0879
565, 73.2189
560, 70.8341
555, 67.7604
550, 64.257
545, 60.2052
540, 55.867
535, 51.4569
530, 47.054
525, 42.974
520, 39.2687
515, 35.9883
510, 33.2336
505, 31.1036
500, 29.7936
495, 29.4931
490, 30.7137
485, 33.7371
480, 38.2067
475, 42.7191
470, 45.3954
465, 45.4134
460, 43.3108
455, 40.1675
450, 36.8602
445, 33.6755
440, 30.9228
435, 28.7253
430, 26.9408
425, 25.6373
420, 24.706
415, 23.9621
410, 23.4979
405, 23.138
400, 22.79

File: 38-Rb3Sb2I9.Sample.Raw.csv
nm, %T
900, 79.4934
895, 79.3964
890, 79.2728
885, 79.1274
880, 79.0301
875, 78.8851
870, 78.8046
865, 78.6817
860, 78.515
855, 78.2851
850, 78.013
845, 77.7197
840, 77.4262
835, 77.1538
830, 76.9233
825, 76.7558
820, 76.6185
815, 76.8359
810, 76.5705
805, 76.4632
800, 76.6638
795, 76.2243
790, 76.2459
785, 76.0293
780, 75.9742
775, 75.7577
770, 75.4427
765, 75.2461
760, 74.918
755, 74.8467
750, 74.4552
745, 74.4788
740, 73.9854
735, 73.7658
730, 73.4005
725, 73.1709
720, 73.0215
715, 72.8547
710, 72.4233
705, 72.2604
700, 71.1255
695, 72.1201
690, 71.368
685, 71.1064
680, 70.9373
675, 70.6895
670, 70.3059
665, 70.0834
660, 69.8434
655, 69.4727
650, 69.1804
645, 68.9565
640, 68.6692
635, 68.2927
630, 67.9656
625, 67.6386
620, 67.2747
615, 66.7987
610, 66.299
605, 65.5764
600, 64.6323
595, 63.3528
590, 61.63
585, 59.2825
580, 56.3248
575, 52.674
570, 48.5675
565, 44.1571
560, 39.4847
555, 34.9082
550, 30.5519
545, 26.6931
540, 23.5174
535, 21.1467
530, 19.4267
525, 18.2607
520, 17.411
515, 16.745
510, 16.0825
505, 15.3688
500, 14.598
495, 13.7193
490, 12.7954
485, 11.945
480, 11.1101
475, 10.4993
470, 10.0705
465, 9.786564
460, 9.688639
455, 9.645773
450, 9.671018
445, 9.696122
440, 9.715451
435, 9.757286
430, 9.751677
425, 9.809402
420, 9.857624
415, 9.950310
410, 10.0036
405, 10.0587
400, 10.0117

File: 39-Cs3Bi2Br9_DMSO.Sample.Raw.csv
nm, %T
900, 81.2968
895, 81.2372
890, 81.1253
885, 81.0851
880, 81.02
875, 80.9379
870, 80.8959
865, 80.8185
860, 80.4425
855, 79.8857
850, 79.2844
845, 78.7753
840, 78.4947
835, 79.6107
830, 79.8774
825, 80.3706
820, 80.5505
815, 80.401
810, 80.0365
805, 80.1866
800, 80.1551
795, 80.1203
790, 79.7914
785, 79.8195
780, 79.8805
775, 79.8636
770, 79.6445
765, 79.6048
760, 79.6351
755, 79.6787
750, 79.3207
745, 79.4305
740, 79.4464
735, 79.3219
730, 79.3864
725, 79.2457
720, 79.1903
715, 79.2268
710, 79.0475
705, 79.069
700, 79.0236
695, 78.9508
690, 78.9616
685, 78.7648
680, 78.7477
675, 78.8863
670, 78.6643
665, 78.6763
660, 78.5724
655, 78.6069
650, 78.6142
645, 78.6026
640, 78.5371
635, 78.5253
630, 78.4394
625, 78.4393
620, 78.3982
615, 78.3925
610, 78.3646
605, 78.4322
600, 78.4241
595, 78.4083
590, 78.41
585, 78.4856
580, 78.4851
575, 78.4835
570, 78.5829
565, 78.6537
560, 78.7047
555, 78.7955
550, 78.889
545, 78.9542
540, 79.1233
535, 79.2372
530, 79.3746
525, 79.5391
520, 79.7256
515, 79.9343
510, 80.1857
505, 80.5045
500, 80.7982
495, 81.1286
490, 81.6107
485, 82.12
480, 82.6584
475, 83.3114
470, 83.8179
465, 83.3549
460, 79.1664
455, 65.445
450, 41.9309
445, 21.7061
440, 11.7973
435, 10.2341
430, 14.5871
425, 23.7167
420, 35.2517
415, 46.5178
410, 54.7735
405, 59.1813
400, 61.1032
395, 61.868
390, 61.826
385, 61.8895
380, 62.0723
375, 61.7897
370, 59.9163
365, 55.5958
360, 49.4509
355, 41.832
350, 33.6743

File: 40-Cs3Sb2Br9_DMSO.Sample.Raw.csv
nm, %T
900, 84.1534
895, 84.102
890, 84.0014
885, 83.9567
880, 83.9118
875, 83.854
870, 83.7975
865, 83.7332
860, 83.414
855, 82.9456
850, 82.4339
845, 81.985
840, 81.7048
835, 82.1277
830, 82.8075
825, 83.0859
820, 83.0188
815, 83.047
810, 82.7132
805, 82.6046
800, 82.8387
795, 82.7603
790, 82.6648
785, 82.5648
780, 82.4559
775, 82.3799
770, 82.2966
765, 82.3097
760, 82.1796
755, 82.2024
750, 82.0603
745, 82.1114
740, 82.0164
735, 81.8359
730, 81.8207
725, 81.7852
720, 81.5915
715, 81.6057
710, 81.3254
705, 81.3234
700, 81.1389
695, 81.1372
690, 81.0056
685, 80.7745
680, 80.744
675, 80.7151
670, 80.4318
665, 80.48
660, 80.2473
655, 80.1786
650, 80.0876
645, 79.9253
640, 79.7752
635, 79.6962
630, 79.5159
625, 79.4136
620, 79.2164
615, 79.1216
610, 78.885
605, 78.7781
600, 78.6453
595, 78.3946
590, 78.2752
585, 78.1419
580, 77.9119
575, 77.7433
570, 77.5275
565, 77.2991
560, 77.1703
555, 76.9731
550, 76.7946
545, 76.5062
540, 76.2747
535, 76
530, 75.7441
525, 75.4523
520, 75.198
515, 74.8767
510, 74.5647
505, 74.1467
500, 73.7244
495, 73.1487
490, 72.3417
485, 71.2254
480, 69.0902
475, 65.7555
470, 61.5295
465, 57.2288
460, 54.15
455, 52.3876
450, 51.6929
445, 51.5417
440, 51.7824
435, 52.0862
430, 52.3359
425, 52.3377
420, 52.1474
415, 51.8058
410, 51.3167
405, 50.8802
400, 50.5877
395, 50.5421
390, 50.5784
385, 50.6996
380, 51.0041
375, 51.2904
370, 51.6298
365, 51.7527
360, 51.9502
355, 51.7949
350, 51.7481

File: 41-Rb3Bi2Br9_DMSO.Sample.Raw.csv
nm, %T
900, 84.2302
895, 84.2528
890, 84.1982
885, 84.256
880, 84.276
875, 84.3051
870, 84.3288
865, 84.364
860, 84.1209
855, 83.7527
850, 83.3532
845, 83.0162
840, 82.8352
835, 83.6471
830, 83.8152
825, 84.1881
820, 84.4881
815, 84.3035
810, 84.249
805, 84.2956
800, 84.3445
795, 84.5503
790, 84.3583
785, 84.3035
780, 84.3868
775, 84.3699
770, 84.3733
765, 84.4378
760, 84.408
755, 84.38
750, 84.4479
745, 84.5561
740, 84.5005
735, 84.5686
730, 84.6364
725, 84.5876
720, 84.4573
715, 84.5989
710, 84.4241
705, 84.4881
700, 84.4864
695, 84.5739
690, 84.5061
685, 84.4361
680, 84.4801
675, 84.6402
670, 84.4486
665, 84.438
660, 84.4455
655, 84.4749
650, 84.4772
645, 84.4812
640, 84.4207
635, 84.389
630, 84.3521
625, 84.328
620, 84.3051
615, 84.2919
610, 84.2176
605, 84.2159
600, 84.2212
595, 84.1157
590, 84.0861
585, 84.0566
580, 84.031
575, 83.9119
570, 83.9131
565, 83.8218
560, 83.7331
555, 83.6974
550, 83.6327
545, 83.5064
540, 83.4105
535, 83.3447
530, 83.2195
525, 83.093
520, 82.9045
515, 82.7783
510, 82.6277
505, 82.4193
500, 82.2521
495, 81.9957
490, 81.7767
485, 81.6372
480, 81.2132
475, 80.866
470, 80.494
465, 79.7826
460, 78.9382
455, 77.2757
450, 73.6045
445, 67.0212
440, 57.7531
435, 48.7309
430, 43.4554
425, 41.7287
420, 41.8098
415, 42.4987
410, 43.368
405, 44.5125
400, 45.7817
395, 47.0342
390, 47.3339
385, 47.4499
380, 50.0226
375, 54.6549
370, 57.8641
365, 58.6721
360, 57.307
355, 54.4136
350, 50.4398

File: 42-Rb3Sb2Br9_DMSO.Sample.Raw.csv
nm, %T
900, 88.3298
895, 88.3216
890, 88.2859
885, 88.2911
880, 88.2987
875, 88.3038
870, 88.307
865, 88.2935
860, 88.0572
855, 87.7054
850, 87.3228
845, 86.9941
840, 86.8039
835, 87.3672
830, 87.7576
825, 88.0564
820, 87.9563
815, 87.9649
810, 87.6912
805, 88.0409
800, 87.9676
795, 87.9793
790, 87.8052
785, 87.8874
780, 87.8096
775, 87.8498
770, 87.854
765, 87.7792
760, 87.7681
755, 87.8067
750, 87.8534
745, 87.9011
740, 87.8366
735, 87.6399
730, 87.7996
725, 87.7022
720, 87.6724
715, 87.612
710, 87.5431
705, 87.5661
700, 87.671
695, 87.6405
690, 87.5795
685, 87.4416
680, 87.4289
675, 87.5189
670, 87.413
665, 87.4009
660, 87.361
655, 87.3544
650, 87.2795
645, 87.321
640, 87.2679
635, 87.2905
630, 87.2039
625, 87.2018
620, 87.1798
615, 87.0941
610, 87.0701
605, 87.1132
600, 87.0305
595, 86.9815
590, 86.9396
585, 86.8781
580, 86.8915
575, 86.824
570, 86.8364
565, 86.7898
560, 86.7624
555, 86.6978
550, 86.7362
545, 86.6114
540, 86.6054
535, 86.5206
530, 86.4616
525, 86.4145
520, 86.3189
515, 86.3031
510, 86.2192
505, 86.1713
500, 86.1689
495, 86.1105
490, 85.9271
485, 85.9997
480, 85.9026
475, 85.846
470, 85.7606
465, 85.5996
460, 85.5925
455, 85.45
450, 85.3162
445, 85.1779
440, 85.1037
435, 84.9089
430, 84.8368
425, 84.6551
420, 84.2612
415, 83.8587
410, 83.2978
405, 82.4262
400, 81.3132
395, 79.9986
390, 78.204
385, 76.2498
380, 74.3045
375, 72.1452
370, 69.9443
365, 68.6083
360, 68.8724
355, 70.4195
350, 71.917

File: 43-K3Bi2I9.Sample.Raw.csv
nm, %T
900, 77.4417
895, 77.417
890, 77.39
885, 77.3671
880, 77.3686
875, 77.3075
870, 77.3069
865, 77.2627
860, 77.1768
855, 77.0568
850, 76.9142
845, 76.7606
840, 76.6076
835, 76.4667
830, 76.3496
825, 76.2678
820, 76.2972
815, 76.742
810, 76.7363
805, 76.9069
800, 76.978
795, 76.9023
790, 76.9948
785, 76.9361
780, 77.1268
775, 77.1305
770, 77.2339
765, 76.9663
760, 76.7074
755, 76.8828
750, 76.7627
745, 76.9132
740, 76.7149
735, 76.6065
730, 76.4177
725, 76.4953
720, 76.5312
715, 76.4865
710, 76.2554
705, 76.2901
700, 76.1297
695, 76.1635
690, 75.9687
685, 75.8707
680, 75.7752
675, 75.6727
670, 75.5304
665, 75.4204
660, 75.2638
655, 75.0761
650, 74.9465
645, 74.822
640, 74.6462
635, 74.4264
630, 74.2189
625, 73.9584
620, 73.7506
615, 73.4972
610, 73.1262
605, 72.6137
600, 72.0208
595, 71.0679
590, 69.7505
585, 67.9296
580, 65.4012
575, 61.8375
570, 57.2154
565, 51.5643
560, 45.2048
555, 38.8865
550, 33.2398
545, 28.7452
540, 25.5514
535, 23.6016
530, 22.5862
525, 22.3731
520, 22.788
515, 23.688
510, 24.8809
505, 26.1323
500, 27.359
495, 28.5419
490, 29.7073
485, 30.6453
480, 30.5333
475, 29.5221
470, 27.8891
465, 26.1388
460, 24.6095
455, 23.2529
450, 22.1818
445, 21.2859
440, 20.5912
435, 19.9399
430, 19.3426
425, 18.7575
420, 18.0759
415, 17.4326
410, 16.729
405, 16.0087
400, 15.3209

File: 44-K3Sb2I9.Sample.Raw.csv
nm, %T
900, 78.6264
895, 78.5669
890, 78.5156
885, 78.4531
880, 78.3889
875, 78.2997
870, 78.2541
865, 78.1912
860, 78.036
855, 77.8195
850, 77.562
845, 77.2837
840, 77.0049
835, 76.7458
830, 76.5267
825, 76.3677
820, 76.2379
815, 76.7239
810, 76.7051
805, 76.4431
800, 76.6488
795, 76.4045
790, 76.5689
785, 76.386
780, 76.5465
775, 76.4142
770, 76.491
765, 76.2074
760, 75.9822
755, 76.0991
750, 75.8511
745, 75.9677
740, 75.687
735, 75.5866
730, 75.517
725, 75.389
720, 75.3108
715, 75.3107
710, 75.1789
705, 75.1533
700, 74.9681
695, 74.9236
690, 74.7105
685, 74.6423
680, 74.5604
675, 74.4768
670, 74.2907
665, 74.2281
660, 74.0882
655, 73.9244
650, 73.7957
645, 73.7102
640, 73.5172
635, 73.2844
630, 73.1306
625, 72.8755
620, 72.687
615, 72.4683
610, 71.9527
605, 71.7858
600, 71.6048
595, 71.0048
590, 70.4047
585, 69.7048
580, 68.9145
575, 67.6688
570, 66.0375
565, 63.917
560, 61.125
555, 57.8662
550, 53.9458
545, 49.0462
540, 44.0616
535, 38.9208
530, 33.8884
525, 29.4198
520, 25.782
515, 23.0667
510, 21.2096
505, 19.9893
500, 19.1942
495, 18.6256
490, 18.1398
485, 17.6768
480, 17.0949
475, 16.3966
470, 15.5915
465, 14.8417
460, 14.2846
455, 13.8885
450, 13.682
445, 13.6079
440, 13.6147
435, 13.6473
430, 13.6671
425, 13.7097
420, 13.7264
415, 13.8268
410, 13.9017
405, 14.0056
400, 14.0439

File: 45-Sample 153 CsBiI3 to CsSbI3 9 to 1 P75 A150.csv
nm, %T
1100, 79.6545
1090, 79.5227
1080, 79.3751
1070, 79.2586
1060, 79.1273
1050, 78.9769
1040, 78.8411
1030, 78.7318
1020, 78.5669
1010, 78.4187
1000, 78.2988
990, 78.1348
980, 77.9662
970, 77.852
960, 77.6784
950, 77.5076
940, 77.428
930, 77.2105
920, 77.0752
910, 76.9465
900, 76.7679
890, 76.6279
880, 76.4863
870, 76.3
860, 76.1561
850, 76.4024
840, 77.4806
830, 77.613
820, 77.6146
810, 77.6402
800, 76.8774
790, 75.5264
780, 75.6935
770, 75.5166
760, 75.497
750, 75.3553
740, 75.183
730, 75.0977
720, 75.1189
710, 74.9902
700, 74.8472
690, 74.581
680, 74.3688
670, 74.3586
660, 74.3357
650, 74.1074
640, 73.9557
630, 73.6431
620, 73.2513
610, 72.634
600, 71.6832
590, 70.2309
580, 67.8702
570, 64.3076
560, 59.0686
550, 52.2441
540, 44.7508
530, 37.0446
520, 29.7906
510, 23.4512
500, 19.9655
490, 24.7341
480, 36.0691
470, 39.5881
460, 33.7774
450, 26.1485
440, 20.0879
430, 15.859
420, 13.7518
410, 12.7953
400, 11.913
390, 10.5738
380, 8.645904
370, 7.113841
360, 5.562877
350, 5.128666
340, 5.151535
330, 5.607155
320, 5.833972
310, 5.377935
300, 0.802320

File: 46-Sample 154 CsBiI3 to CsSbI3 4 to 1 P75 A150.csv
nm, %T
1100, 80.4024
1090, 80.3088
1080, 80.2217
1070, 80.139
1060, 80.0258
1050, 79.9301
1040, 79.8286
1030, 79.7285
1020, 79.6506
1010, 79.5338
1000, 79.4484
990, 79.3295
980, 79.2467
970, 79.1484
960, 79.0495
950, 78.9652
940, 78.9116
930, 78.8039
920, 78.7444
910, 78.6295
900, 78.5544
890, 78.4782
880, 78.428
870, 78.3485
860, 78.2598
850, 78.6289
840, 79.889
830, 80.0832
820, 80.0552
810, 79.8903
800, 79.3537
790, 78.1751
780, 78.0766
770, 78.0985
760, 78.1209
750, 78.0327
740, 77.9419
730, 77.9688
720, 77.9478
710, 77.8606
700, 77.7147
690, 77.6075
680, 77.5068
670, 77.3076
660, 77.1005
650, 76.8376
640, 76.4837
630, 76.0211
620, 75.297
610, 74.2611
600, 72.6698
590, 70.3469
580, 66.9455
570, 62.1872
560, 55.8493
550, 48.2388
540, 40.4005
530, 32.5914
520, 25.708
510, 20.0744
500, 17.5702
490, 22.1772
480, 30.7838
470, 32.9638
460, 27.8731
450, 20.8934
440, 15.057
430, 10.8372
420, 8.717251
410, 7.706063
400, 6.781665
390, 5.381023
380, 3.498336
370, 2.130852
360, 1.000524
350, 0.908732
340, 1.028302
330, 1.275274
320, 1.838036
310, 2.452595
300, -1.093883

File: 47-Sample 155 CsBiI3 to CsSbI3 7 to 3 P75 A150.csv
nm, %T
1100, 78.6396
1090, 78.415
1080, 78.1521
1070, 77.9305
1060, 77.7138
1050, 77.4475
1040, 77.2052
1030, 76.9679
1020, 76.6931
1010, 76.4522
1000, 76.2277
990, 75.9168
980, 75.6557
970, 75.4186
960, 75.0811
950, 74.8459
940, 74.5954
930, 74.2733
920, 74.0086
910, 73.7043
900, 73.3671
890, 73.1021
880, 72.7755
870, 72.4578
860, 72.1584
850, 72.2364
840, 73.1816
830, 72.9383
820, 72.6969
810, 72.4484
800, 71.4908
790, 69.8467
780, 69.7134
770, 69.2211
760, 69.0625
750, 68.5469
740, 68.0627
730, 67.659
720, 67.2348
710, 66.7104
700, 66.0916
690, 65.4578
680, 64.7327
670, 64.1508
660, 63.5573
650, 62.8363
640, 61.932
630, 60.8172
620, 59.3724
610, 57.3726
600, 54.9226
590, 51.6246
580, 47.4941
570, 42.5293
560, 36.6527
550, 30.4197
540, 24.6378
530, 19.5367
520, 15.6122
510, 12.9217
500, 12.4574
490, 15.7916
480, 19.0639
470, 17.984
460, 13.9575
450, 10.2061
440, 7.728624
430, 5.784874
420, 4.852596
410, 4.370713
400, 3.769629
390, 2.887075
380, 1.704369
370, 1.244572
360, 0.828740
350, 1.138682
340, 1.444134
330, 1.627405
320, 2.049712
310, 2.918030
300, -0.484963

File: 48-Sample 156 CsBiI3 to CsSbI3 3 to 2 P75 A150.csv
nm, %T
1100, 78.1275
1090, 77.9338
1080, 77.7427
1070, 77.5346
1060, 77.3582
1050, 77.1549
1040, 76.9216
1030, 76.734
1020, 76.5265
1010, 76.3019
1000, 76.1044
990, 75.8883
980, 75.6602
970, 75.4613
960, 75.2223
950, 75.0373
940, 74.8337
930, 74.5958
920, 74.3603
910, 74.1353
900, 73.9003
890, 73.6964
880, 73.4827
870, 73.2474
860, 73.006
850, 73.1549
840, 73.9771
830, 73.6987
820, 73.6209
810, 73.0855
800, 72.4079
790, 70.7587
780, 70.6351
770, 70.3271
760, 70.0831
750, 69.4804
740, 69.0672
730, 68.6406
720, 68.2627
710, 67.7814
700, 67.2171
690, 66.5056
680, 65.8439
670, 65.2214
660, 64.5893
650, 63.8504
640, 62.8546
630, 61.6458
620, 60.0018
610, 58.0255
600, 55.4036
590, 52.1279
580, 48.161
570, 43.3591
560, 37.8177
550, 32.133
540, 26.9115
530, 22.3587
520, 18.9573
510, 16.5786
500, 16.0127
490, 18.1171
480, 19.1832
470, 16.8848
460, 13.0839
450, 9.896150
440, 7.610188
430, 5.507868
420, 4.338024
410, 3.619157
400, 2.856934
390, 1.875023
380, 0.657061
370, 0.208856
360, -0.210213
350, 0.053989
340, 0.253133
330, 0.474625
320, 1.124585
310, 2.107565
300, -1.281122

File: 49-Sample 157 CsBiI3 to CsSbI3 1 to 1 P75 A125.csv
nm, %T
1100, 79.874
1090, 79.8119
1080, 79.7074
1070, 79.6547
1060, 79.6159
1050, 79.515
1040, 79.4555
1030, 79.4101
1020, 79.3331
1010, 79.2406
1000, 79.2213
990, 79.1145
980, 79.042
970, 79.0078
960, 78.9034
950, 78.8622
940, 78.8364
930, 78.7511
920, 78.7014
910, 78.6662
900, 78.6307
890, 78.6701
880, 78.7251
870, 78.7895
860, 78.8587
850, 79.2975
840, 79.7869
830, 79.7022
820, 79.72
810, 79.3595
800, 78.5528
790, 77.0169
780, 77.1389
770, 76.7819
760, 76.6292
750, 76.2118
740, 75.8604
730, 75.5074
720, 75.1861
710, 74.6978
700, 74.2701
690, 73.6038
680, 72.9856
670, 72.2946
660, 71.6357
650, 70.7325
640, 69.7028
630, 68.4273
620, 66.8148
610, 64.8027
600, 62.264
590, 59.0313
580, 55.0331
570, 50.3375
560, 45.0384
550, 39.6642
540, 34.872
530, 30.6544
520, 27.4597
510, 25.044
500, 23.8142
490, 24.3787
480, 23.8075
470, 20.6404
460, 16.7422
450, 13.5802
440, 10.9668
430, 8.183488
420, 6.341818
410, 5.120936
400, 4.022056
390, 2.720784
380, 1.167922
370, 0.354846
360, -0.166667
350, -0.211362
340, -0.230368
330, -0.201546
320, -0.020259
310, 0.323100
300, -1.532063

File: 50-Sample 158 CsBiI3 to CsSbI3 2 to 3 P75 A125.csv
nm, %T
1100, 81.6883
1090, 81.6704
1080, 81.6512
1070, 81.6273
1060, 81.6362
1050, 81.5746
1040, 81.5241
1030, 81.5174
1020, 81.4494
1010, 81.381
1000, 81.3441
990, 81.2391
980, 81.1594
970, 81.1025
960, 80.9452
950, 80.862
940, 80.7676
930, 80.6286
920, 80.47
910, 80.3241
900, 80.1318
890, 79.9659
880, 79.8088
870, 79.5794
860, 79.3721
850, 79.5574
840, 80.8304
830, 80.6972
820, 80.5494
810, 80.1842
800, 79.2693
790, 77.8002
780, 77.7577
770, 77.4785
760, 77.424
750, 77.0664
740, 76.9048
730, 76.7676
720, 76.8056
710, 76.7289
700, 76.816
690, 76.7258
680, 76.81
670, 77.0345
660, 77.3785
650, 77.7112
640, 78.0488
630, 78.2514
620, 78.0844
610, 77.4198
600, 75.6616
590, 72.4664
580, 67.7673
570, 61.612
560, 54.6455
550, 47.6752
540, 41.7478
530, 36.7891
520, 32.7242
510, 29.014
500, 25.9262
490, 24.0622
480, 21.2626
470, 17.0254
460, 13.3341
450, 10.9626
440, 8.741904
430, 5.893921
420, 3.891340
410, 2.610247
400, 1.505194
390, 0.358396
380, -0.987366
370, -1.478595
360, -1.807126
350, -1.712096
340, -1.655914
330, -1.467317
320, -1.029868
310, -0.272453
300, -1.900589

File: 51-Sample 159 CsBiI3 to CsSbI3 3 to 7 P75 A125.csv
nm, %T
1100, 81.2781
1090, 81.1279
1080, 80.8978
1070, 80.7423
1060, 80.5288
1050, 80.2576
1040, 80.047
1030, 79.7889
1020, 79.5103
1010, 79.2515
1000, 78.9747
990, 78.6446
980, 78.3763
970, 78.087
960, 77.7466
950, 77.4548
940, 77.1594
930, 76.819
920, 76.5409
910, 76.2065
900, 75.9026
890, 75.6738
880, 75.4179
870, 75.2009
860, 75.0381
850, 75.2624
840, 76.4508
830, 76.6449
820, 76.5201
810, 76.4895
800, 75.8559
790, 74.9183
780, 75.5342
770, 75.7432
760, 76.3913
750, 76.728
740, 77.1478
730, 77.9317
720, 78.8034
710, 79.6113
700, 80.5927
690, 81.4317
680, 82.394
670, 83.3913
660, 84.11
650, 84.534
640, 84.5358
630, 83.6551
620, 81.7472
610, 78.5179
600, 73.7538
590, 67.83
580, 61.1962
570, 54.5112
560, 48.2831
550, 43.0025
540, 38.8669
530, 35.3436
520, 31.9457
510, 27.952
500, 23.5636
490, 19.9538
480, 15.7533
470, 11.3042
460, 8.573720
450, 7.426466
440, 6.116237
430, 3.891774
420, 2.327790
410, 1.289949
400, 0.384666
390, -0.555063
380, -1.591378
370, -1.847122
360, -1.997916
350, -1.852030
340, -1.746766
330, -1.566315
320, -1.206978
310, -0.434525
300, -2.003346

File: 52-Sample 160 CsBiI3 to CsSbI3 1 to 4 P75 A100.csv
nm, %T
1100, 83.4895
1090, 83.5028
1080, 83.4948
1070, 83.4837
1060, 83.4507
1050, 83.4149
1040, 83.3428
1030, 83.2948
1020, 83.2003
1010, 83.0734
1000, 82.9964
990, 82.8291
980, 82.6657
970, 82.5113
960, 82.3152
950, 82.1152
940, 81.9223
930, 81.6353
920, 81.3544
910, 81.0826
900, 80.7246
890, 80.457
880, 80.1232
870, 79.7644
860, 79.4344
850, 79.5361
840, 80.5339
830, 80.4471
820, 80.0021
810, 79.5362
800, 78.9204
790, 77.2053
780, 76.999
770, 76.6754
760, 76.6657
750, 76.5171
740, 76.196
730, 76.2282
720, 76.3376
710, 76.4928
700, 76.7473
690, 76.9681
680, 77.4013
670, 78.0335
660, 78.7123
650, 79.424
640, 80.2617
630, 80.8963
620, 81.2306
610, 80.8514
600, 79.4046
590, 76.4875
580, 72.1847
570, 66.8124
560, 61.0499
550, 55.5941
540, 50.8477
530, 46.1531
520, 41.0352
510, 34.9823
500, 28.5473
490, 23.1952
480, 17.9955
470, 13.3061
460, 11.0794
450, 10.5933
440, 9.439285
430, 6.809482
420, 4.662839
410, 3.141360
400, 1.848665
390, 0.518156
380, -0.903720
370, -1.432334
360, -1.797101
350, -1.620409
340, -1.592944
330, -1.402990
320, -0.893277
310, -0.022661
300, -1.782690

File: 53-Sample 161 CsBiI3 to CsSbI3 1 to 9 P75 A100.csv
nm, %T
1100, 76.5174
1090, 76.3245
1080, 76.0415
1070, 75.8134
1060, 75.5827
1050, 75.3301
1040, 75.0606
1030, 74.828
1020, 74.58
1010, 74.3033
1000, 74.0369
990, 73.7569
980, 73.4769
970, 73.1988
960, 72.9433
950, 72.6865
940, 72.4272
930, 72.1127
920, 71.8062
910, 71.5062
900, 71.2156
890, 70.9449
880, 70.64
870, 70.3035
860, 70.0094
850, 70.0826
840, 70.9392
830, 70.4534
820, 70.5246
810, 70.1164
800, 69.2828
790, 67.9901
780, 67.966
770, 67.6093
760, 67.5754
750, 67.1994
740, 66.8462
730, 66.6089
720, 66.3603
710, 66.0748
700, 65.7232
690, 65.3057
680, 64.7892
670, 64.3012
660, 63.8415
650, 62.9953
640, 61.8039
630, 60.2415
620, 58.1094
610, 55.3763
600, 52.2084
590, 48.8898
580, 45.9118
570, 43.5326
560, 41.6288
550, 40.2558
540, 39.0549
530, 37.5659
520, 35.8925
510, 34.0193
500, 32.4419
490, 31.87
480, 31.0957
470, 29.8223
460, 29.2233
450, 29.2705
440, 29.2454
430, 28.5558
420, 27.9893
410, 27.437
400, 26.6928
390, 25.7024
380, 24.43
370, 23.6833
360, 22.8867
350, 22.522
340, 21.869
330, 20.7644
320, 18.8388
310, 15.9383
300, 9.457831