Folder: campaign1/XRD (part 13)

File: 68.xy
5.00000 4793.000
5.24000 4628.000
5.48000 4364.000
5.72000 4146.000
5.96000 3970.000
6.20000 3750.000
6.44000 3640.000
6.68000 3441.000
6.92000 3285.000
7.16000 3205.000
7.40000 3065.000
7.64000 2971.000
7.88000 2809.000
8.12000 2718.000
8.36000 2671.000
8.60000 2621.000
8.84000 2722.000
9.08000 2404.000
9.32000 2460.000
9.56000 2341.000
9.80000 2297.000
10.04000 2233.000
10.28000 2157.000
10.52000 2202.000
10.76000 2090.000
11.00000 2057.000
11.24000 2020.000
11.48000 1987.000
11.72000 1995.000
11.96000 1976.000
12.20000 2039.000
12.44000 2179.000
12.68000 2153.000
12.92000 2003.000
13.16000 1892.000
13.40000 1986.000
13.64000 1927.000
13.88000 1900.000
14.12000 2025.000
14.36000 2024.000
14.60000 2095.000
14.84000 2088.000
15.08000 2239.000
15.32000 2578.000
15.56000 2463.000
15.80000 2181.000
16.04000 2190.000
16.28000 2268.000
16.52000 2317.000
16.76000 2290.000
17.00000 2305.000
17.24000 2492.000
17.48000 2497.000
17.72000 2864.000
17.96000 3012.000
18.20000 2657.000
18.44000 2766.000
18.68000 2742.000
18.92000 2750.000
19.16000 2882.000
19.40000 2859.000
19.64000 2902.000
19.88000 3056.000
20.12000 3063.000
20.36000 3190.000
20.60000 3111.000
20.84000 3292.000
21.08000 3234.000
21.32000 3375.000
21.56000 3594.000
21.80000 3728.000
22.04000 3910.000
22.28000 3655.000
22.52000 3431.000
22.76000 3536.000
23.00000 3591.000
23.24000 3581.000
23.48000 3630.000
23.72000 3635.000
23.96000 3609.000
24.20000 3715.000
24.44000 3721.000
24.68000 3552.000
24.92000 3516.000
25.16000 3565.000
25.40000 3644.000
25.64000 3696.000
25.88000 3653.000
26.12000 3527.000
26.36000 3707.000
26.60000 4331.000
26.84000 6189.000
27.08000 6744.000
27.32000 5166.000
27.56000 3906.000
27.80000 3179.000
28.04000 3169.000
28.28000 3181.000
28.52000 3095.000
28.76000 3158.000
29.00000 3150.000
29.24000 3056.000
29.48000 3407.000
29.72000 7866.000
29.96000 8566.000
30.20000 3254.000
30.44000 3074.000
30.68000 3076.000
30.92000 3270.000
31.16000 4038.000
31.40000 4004.000
31.64000 2959.000
31.88000 2629.000
32.12000 2564.000
32.36000 2493.000
32.60000 2314.000
32.84000 2405.000
33.08000 2312.000
33.32000 2321.000
33.56000 2200.000
33.80000 2220.000
34.04000 2165.000
34.28000 2087.000
34.52000 2005.000
34.76000 2013.000
35.00000 1916.000
35.24000 1958.000
35.48000 1874.000
35.72000 1859.000
35.96000 1738.000
36.20000 1655.000
36.44000 1704.000
36.68000 1553.000
36.92000 1636.000
37.16000 1648.000
37.40000 1524.000
37.64000 1554.000
37.88000 1514.000
38.12000 1439.000
38.36000 1563.000
38.60000 1659.000
38.84000 1544.000
39.08000 1445.000
39.32000 1344.000
39.56000 1425.000
39.80000 1353.000
40.04000 1404.000
40.28000 1461.000
40.52000 1385.000
40.76000 1474.000
41.00000 1339.000
41.24000 1371.000
41.48000 1383.000
41.72000 1375.000
41.96000 1446.000
42.20000 1423.000
42.44000 1511.000
42.68000 1588.000
42.92000 1512.000
43.16000 1356.000
43.40000 1375.000
43.64000 1386.000
43.88000 1435.000
44.12000 1550.000
44.36000 1525.000
44.60000 1571.000
44.84000 1827.000
45.08000 1829.000
45.32000 1534.000
45.56000 1366.000
45.80000 1354.000
46.04000 1322.000
46.28000 1306.000
46.52000 1263.000
46.76000 1310.000
47.00000 1313.000
47.24000 1334.000
47.48000 1281.000
47.72000 1338.000
47.96000 1241.000
48.20000 1173.000
48.44000 1210.000
48.68000 1202.000
48.92000 1250.000
49.16000 1238.000
49.40000 1214.000
49.64000 1180.000
49.88000 1222.000
50.12000 1133.000
50.36000 1211.000
50.60000 1231.000
50.84000 1175.000
51.08000 1188.000
51.32000 1171.000
51.56000 1207.000
51.80000 1187.000
52.04000 1129.000
52.28000 1183.000
52.52000 1158.000
52.76000 1257.000
53.00000 1312.000
53.24000 1328.000
53.48000 1262.000
53.72000 1253.000
53.96000 1161.000
54.20000 1183.000
54.44000 1154.000
54.68000 1217.000
54.92000 1217.000
55.16000 1237.000
55.40000 1346.000
55.64000 1343.000
55.88000 1437.000
56.12000 1327.000
56.36000 1228.000
56.60000 1156.000
56.84000 1201.000
57.08000 1172.000
57.32000 1200.000
57.56000 1183.000
57.80000 1124.000
58.04000 1098.000
58.28000 1175.000
58.52000 1098.000
58.76000 1143.000
59.00000 1201.000
59.24000 1171.000
59.48000 1107.000
59.72000 1079.000
59.96000 1085.000
60.20000 1216.000
60.44000 1197.000
60.68000 1099.000
60.92000 1184.000
61.16000 1093.000
61.40000 1129.000
61.64000 1173.000
61.88000 1368.000
62.12000 1567.000
62.36000 1250.000
62.60000 1092.000
62.84000 1129.000
63.08000 1104.000
63.32000 1148.000
63.56000 1194.000
63.80000 1133.000
64.04000 1116.000
64.28000 1064.000
64.52000 1111.000
64.76000 1119.000
65.00000 1131.000
65.24000 1099.000
65.48000 1104.000
65.72000 1090.000
65.96000 1030.000
66.20000 990.000
66.44000 1067.000
66.68000 1077.000
66.92000 1025.000
67.16000 1005.000
67.40000 1012.000
67.64000 1006.000
67.88000 1021.000
68.12000 1021.000
68.36000 999.000
68.60000 919.000
68.84000 991.000
69.08000 998.000
69.32000 955.000
69.56000 914.000
69.80000 982.000
69.92000 1024.000

File: 69.xy
5.00000 4741.000
5.24000 4549.000
5.48000 4262.000
5.72000 4078.000
5.96000 3747.000
6.20000 3662.000
6.44000 3702.000
6.68000 3449.000
6.92000 3226.000
7.16000 3138.000
7.40000 3107.000
7.64000 2958.000
7.88000 2844.000
8.12000 2778.000
8.36000 2814.000
8.60000 2844.000
8.84000 2670.000
9.08000 2503.000
9.32000 2397.000
9.56000 2355.000
9.80000 2297.000
10.04000 2205.000
10.28000 2164.000
10.52000 2163.000
10.76000 2077.000
11.00000 2056.000
11.24000 2091.000
11.48000 2189.000
11.72000 2809.000
11.96000 2738.000
12.20000 1964.000
12.44000 1962.000
12.68000 2291.000
12.92000 3254.000
13.16000 3170.000
13.40000 2469.000
13.64000 1863.000
13.88000 1891.000
14.12000 1920.000
14.36000 1981.000
14.60000 2034.000
14.84000 1996.000
15.08000 1978.000
15.32000 2014.000
15.56000 2064.000
15.80000 2037.000
16.04000 2068.000
16.28000 2056.000
16.52000 2638.000
16.76000 3666.000
17.00000 2378.000
17.24000 2163.000
17.48000 2244.000
17.72000 2550.000
17.96000 2324.000
18.20000 2260.000
18.44000 2275.000
18.68000 2429.000
18.92000 2661.000
19.16000 2737.000
19.40000 2627.000
19.64000 2533.000
19.88000 2603.000
20.12000 2706.000
20.36000 2639.000
20.60000 2887.000
20.84000 3298.000
21.08000 3538.000
21.32000 3567.000
21.56000 2915.000
21.80000 2921.000
22.04000 2948.000
22.28000 3079.000
22.52000 3262.000
22.76000 3481.000
23.00000 3859.000
23.24000 5030.000
23.48000 6602.000
23.72000 5019.000
23.96000 3496.000
24.20000 3127.000
24.44000 3065.000
24.68000 3143.000
24.92000 3042.000
25.16000 3216.000
25.40000 3162.000
25.64000 3103.000
25.88000 3090.000
26.12000 3072.000
26.36000 3028.000
26.60000 3062.000
26.84000 3184.000
27.08000 3005.000
27.32000 2961.000
27.56000 2784.000
27.80000 2774.000
28.04000 2890.000
28.28000 3442.000
28.52000 3101.000
28.76000 3295.000
29.00000 3946.000
29.24000 3524.000
29.48000 2670.000
29.72000 2685.000
29.96000 3075.000
30.20000 2700.000
30.44000 2486.000
30.68000 2451.000
30.92000 2446.000
31.16000 2380.000
31.40000 2306.000
31.64000 2367.000
31.88000 2313.000
32.12000 2321.000
32.36000 2160.000
32.60000 2135.000
32.84000 2148.000
33.08000 2134.000
33.32000 2168.000
33.56000 2265.000
33.80000 2219.000
34.04000 2213.000
34.28000 2021.000
34.52000 1942.000
34.76000 1782.000
35.00000 1765.000
35.24000 1742.000
35.48000 1802.000
35.72000 1730.000
35.96000 1843.000
36.20000 1784.000
36.44000 1624.000
36.68000 1517.000
36.92000 1617.000
37.16000 1505.000
37.40000 1486.000
37.64000 1443.000
37.88000 1499.000
38.12000 1455.000
38.36000 1405.000
38.60000 1350.000
38.84000 1400.000
39.08000 1431.000
39.32000 1368.000
39.56000 1439.000
39.80000 1442.000
40.04000 1478.000
40.28000 1564.000
40.52000 1622.000
40.76000 1609.000
41.00000 1433.000
41.24000 1422.000
41.48000 1422.000
41.72000 1451.000
41.96000 1524.000
42.20000 1520.000
42.44000 1470.000
42.68000 1413.000
42.92000 1336.000
43.16000 1351.000
43.40000 1366.000
43.64000 1480.000
43.88000 1308.000
44.12000 1399.000
44.36000 1356.000
44.60000 1299.000
44.84000 1370.000
45.08000 1375.000
45.32000 1365.000
45.56000 1355.000
45.80000 1302.000
46.04000 1429.000
46.28000 2097.000
46.52000 2103.000
46.76000 1633.000
47.00000 1423.000
47.24000 1358.000
47.48000 1262.000
47.72000 1303.000
47.96000 1259.000
48.20000 1274.000
48.44000 1212.000
48.68000 1275.000
48.92000 1388.000
49.16000 1317.000
49.40000 1266.000
49.64000 1227.000
49.88000 1191.000
50.12000 1217.000
50.36000 1191.000
50.60000 1141.000
50.84000 1221.000
51.08000 1186.000
51.32000 1198.000
51.56000 1246.000
51.80000 1368.000
52.04000 1929.000
52.28000 1469.000
52.52000 1215.000
52.76000 1205.000
53.00000 1251.000
53.24000 1263.000
53.48000 1190.000
53.72000 1194.000
53.96000 1201.000
54.20000 1169.000
54.44000 1122.000
54.68000 1062.000
54.92000 1075.000
55.16000 1134.000
55.40000 1147.000
55.64000 1170.000
55.88000 1085.000
56.12000 1103.000
56.36000 1160.000
56.60000 1239.000
56.84000 1142.000
57.08000 1070.000
57.32000 1141.000
57.56000 1103.000
57.80000 1173.000
58.04000 1107.000
58.28000 1108.000
58.52000 1215.000
58.76000 1125.000
59.00000 1157.000
59.24000 1113.000
59.48000 1067.000
59.72000 1141.000
59.96000 1166.000
60.20000 1083.000
60.44000 1120.000
60.68000 1108.000
60.92000 1078.000
61.16000 1044.000
61.40000 1158.000
61.64000 1107.000
61.88000 1113.000
62.12000 1131.000
62.36000 1101.000
62.60000 1118.000
62.84000 1047.000
63.08000 1057.000
63.32000 1111.000
63.56000 1077.000
63.80000 1077.000
64.04000 1070.000
64.28000 1114.000
64.52000 1081.000
64.76000 1047.000
65.00000 1053.000
65.24000 1034.000
65.48000 1015.000
65.72000 1039.000
65.96000 1069.000
66.20000 1029.000
66.44000 999.000
66.68000 1009.000
66.92000 1056.000
67.16000 1067.000
67.40000 982.000
67.64000 998.000
67.88000 964.000
68.12000 983.000
68.36000 1047.000
68.60000 964.000
68.84000 997.000
69.08000 905.000
69.32000 955.000
69.56000 960.000
69.80000 955.000
69.92000 910.000

File: 70.xy
5.00000 2786.000
5.20000 2573.000
5.40000 2575.000
5.60000 2455.000
5.80000 2358.000
6.00000 2365.000
6.20000 2179.000
6.40000 2125.000
6.60000 2029.000
6.80000 2038.000
7.00000 1893.000
7.20000 1899.000
7.40000 1806.000
7.60000 1871.000
7.80000 1753.000
8.00000 1700.000
8.20000 1725.000
8.40000 1687.000
8.60000 1656.000
8.80000 1512.000
9.00000 1445.000
9.20000 1417.000
9.40000 1476.000
9.60000 1409.000
9.80000 1326.000
10.00000 1390.000
10.20000 1348.000
10.40000 1339.000
10.60000 1331.000
10.80000 1247.000
11.00000 1243.000
11.20000 1260.000
11.40000 1259.000
11.60000 1220.000
11.80000 1213.000
12.00000 1232.000
12.20000 1178.000
12.40000 1141.000
12.60000 1121.000
12.80000 1144.000
13.00000 1167.000
13.20000 1159.000
13.40000 1089.000
13.60000 1130.000
13.80000 1209.000
14.00000 1088.000
14.20000 1093.000
14.40000 1108.000
14.60000 1156.000
14.80000 1257.000
15.00000 1310.000
15.20000 1119.000
15.40000 1110.000
15.60000 1084.000
15.80000 1158.000
16.00000 1104.000
16.20000 1167.000
16.40000 1098.000
16.60000 1136.000
16.80000 1180.000
17.00000 1318.000
17.20000 1427.000
17.40000 1293.000
17.60000 1303.000
17.80000 1264.000
18.00000 1292.000
18.20000 1198.000
18.40000 1270.000
18.60000 1320.000
18.80000 1468.000
19.00000 1492.000
19.20000 2514.000
19.40000 21913.000
19.60000 29197.000
19.80000 4647.000
20.00000 1813.000
20.20000 1618.000
20.40000 1793.000
20.60000 3944.000
20.80000 20346.000
21.00000 12661.000
21.20000 2149.000
21.40000 1669.000
21.60000 1699.000
21.80000 1555.000
22.00000 1674.000
22.20000 1658.000
22.40000 1641.000
22.60000 1626.000
22.80000 1599.000
23.00000 1632.000
23.20000 1595.000
23.40000 1714.000
23.60000 1720.000
23.80000 1807.000
24.00000 1979.000
24.20000 2023.000
24.40000 1711.000
24.60000 1692.000
24.80000 1744.000
25.00000 1720.000
25.20000 1645.000
25.40000 1703.000
25.60000 2239.000
25.80000 4196.000
26.00000 3153.000
26.20000 1882.000
26.40000 1733.000
26.60000 1600.000
26.80000 1589.000
27.00000 1663.000
27.20000 1548.000
27.40000 1649.000
27.60000 1571.000
27.80000 1611.000
28.00000 1690.000
28.20000 1633.000
28.40000 1560.000
28.60000 1500.000
28.80000 1508.000
29.00000 1443.000
29.20000 1455.000
29.40000 1367.000
29.60000 1440.000
29.80000 1511.000
30.00000 1481.000
30.20000 1442.000
30.40000 1536.000
30.60000 1419.000
30.80000 1408.000
31.00000 1346.000
31.20000 1312.000
31.40000 1224.000
31.60000 1271.000
31.80000 1232.000
32.00000 1203.000
32.20000 1183.000
32.40000 1165.000
32.60000 1166.000
32.80000 1179.000
33.00000 1216.000
33.20000 1062.000
33.40000 1139.000
33.60000 1175.000
33.80000 1265.000
34.00000 1123.000
34.20000 1097.000
34.40000 1286.000
34.60000 1103.000
34.80000 1012.000
35.00000 963.000
35.20000 930.000
35.40000 890.000
35.60000 964.000
35.80000 902.000
36.00000 892.000
36.20000 824.000
36.40000 803.000
36.60000 801.000
36.80000 869.000
37.00000 860.000
37.20000 807.000
37.40000 822.000
37.60000 864.000
37.80000 814.000
38.00000 819.000
38.20000 887.000
38.40000 799.000
38.60000 798.000
38.80000 867.000
39.00000 844.000
39.20000 915.000
39.40000 1238.000
39.60000 7124.000
39.80000 12849.000
40.00000 3777.000
40.20000 1088.000
40.40000 908.000
40.60000 990.000
40.80000 942.000
41.00000 911.000
41.20000 970.000
41.40000 972.000
41.60000 1095.000
41.80000 1230.000
42.00000 1416.000
42.20000 3763.000
42.40000 38040.000
42.60000 54867.000
42.80000 11267.000
43.00000 2342.000
43.20000 1721.000
43.40000 1181.000
43.60000 1002.000
43.80000 983.000
44.00000 876.000
44.20000 843.000
44.40000 791.000
44.60000 805.000
44.80000 784.000
45.00000 747.000
45.20000 779.000
45.40000 764.000
45.60000 776.000
45.80000 768.000
46.00000 702.000
46.20000 703.000
46.40000 686.000
46.60000 644.000
46.80000 663.000
47.00000 670.000
47.20000 651.000
47.40000 658.000
47.60000 645.000
47.80000 610.000
48.00000 627.000
48.20000 663.000
48.40000 628.000
48.60000 657.000
48.80000 619.000
49.00000 651.000
49.20000 633.000
49.40000 648.000
49.60000 621.000
49.80000 566.000
50.00000 669.000
50.20000 599.000
50.40000 575.000
50.60000 575.000
50.80000 609.000
51.00000 572.000
51.20000 594.000
51.40000 602.000
51.60000 593.000
51.80000 592.000
52.00000 592.000
52.20000 573.000
52.40000 616.000
52.60000 581.000
52.80000 601.000
53.00000 563.000
53.20000 686.000
53.40000 658.000
53.60000 602.000
53.80000 542.000
54.00000 586.000
54.20000 604.000
54.40000 581.000
54.60000 600.000
54.80000 578.000
55.00000 609.000
55.20000 623.000
55.40000 546.000
55.60000 599.000
55.80000 645.000
56.00000 618.000
56.20000 642.000
56.40000 567.000
56.60000 648.000
56.80000 579.000
57.00000 586.000
57.20000 638.000
57.40000 583.000
57.60000 604.000
57.80000 578.000
58.00000 565.000
58.20000 598.000
58.40000 615.000
58.60000 614.000
58.80000 605.000
59.00000 572.000
59.20000 581.000
59.40000 608.000
59.60000 571.000
59.80000 573.000
59.92000 573.000

File: 71.xy
5.00000 5983.000
5.24000 5788.000
5.48000 5596.000
5.72000 5426.000
5.96000 5280.000
6.20000 4838.000
6.44000 4756.000
6.68000 4692.000
6.92000 4505.000
7.16000 4340.000
7.40000 4216.000
7.64000 3941.000
7.88000 3819.000
8.12000 3666.000
8.36000 3772.000
8.60000 3646.000
8.84000 3431.000
9.08000 3297.000
9.32000 3251.000
9.56000 3222.000
9.80000 3071.000
10.04000 3057.000
10.28000 2954.000
10.52000 3018.000
10.76000 2786.000
11.00000 2796.000
11.24000 2835.000
11.48000 2807.000
11.72000 2702.000
11.96000 2693.000
12.20000 2715.000
12.44000 2598.000
12.68000 2628.000
12.92000 2552.000
13.16000 2668.000
13.40000 2525.000
13.64000 2545.000
13.88000 2543.000
14.12000 2587.000
14.36000 2466.000
14.60000 2462.000
14.84000 2498.000
15.08000 2620.000
15.32000 2558.000
15.56000 2586.000
15.80000 2537.000
16.04000 2586.000
16.28000 2559.000
16.52000 2639.000
16.76000 2694.000
17.00000 2826.000
17.24000 2829.000
17.48000 2798.000
17.72000 2849.000
17.96000 2921.000
18.20000 2864.000
18.44000 2904.000
18.68000 3017.000
18.92000 3024.000
19.16000 3031.000
19.40000 3085.000
19.64000 3015.000
19.88000 3252.000
20.12000 3279.000
20.36000 3202.000
20.60000 3715.000
20.84000 6386.000
21.08000 4282.000
21.32000 3447.000
21.56000 3467.000
21.80000 3419.000
22.04000 3380.000
22.28000 3350.000
22.52000 3514.000
22.76000 3517.000
23.00000 3485.000
23.24000 3450.000
23.48000 3600.000
23.72000 3719.000
23.96000 7607.000
24.20000 18559.000
24.44000 4755.000
24.68000 3512.000
24.92000 3260.000
25.16000 3442.000
25.40000 3345.000
25.64000 3298.000
25.88000 3482.000
26.12000 3265.000
26.36000 3151.000
26.60000 3181.000
26.84000 3080.000
27.08000 3046.000
27.32000 2996.000
27.56000 2998.000
27.80000 2993.000
28.04000 2983.000
28.28000 2886.000
28.52000 2903.000
28.76000 2793.000
29.00000 2711.000
29.24000 2788.000
29.48000 2744.000
29.72000 2791.000
29.96000 2667.000
30.20000 2657.000
30.44000 2592.000
30.68000 2583.000
30.92000 2502.000
31.16000 2691.000
31.40000 2631.000
31.64000 3171.000
31.88000 2623.000
32.12000 2403.000
32.36000 2279.000
32.60000 2356.000
32.84000 2206.000
33.08000 2174.000
33.32000 2171.000
33.56000 2082.000
33.80000 2096.000
34.04000 1982.000
34.28000 1983.000
34.52000 2004.000
34.76000 1855.000
35.00000 1735.000
35.24000 1740.000
35.48000 1774.000
35.72000 1699.000
35.96000 1624.000
36.20000 1574.000
36.44000 1587.000
36.68000 1557.000
36.92000 1457.000
37.16000 1513.000
37.40000 1421.000
37.64000 1443.000
37.88000 1403.000
38.12000 1407.000
38.36000 1389.000
38.60000 1416.000
38.84000 1336.000
39.08000 1339.000
39.32000 1316.000
39.56000 1346.000
39.80000 1311.000
40.04000 1332.000
40.28000 1371.000
40.52000 1326.000
40.76000 1302.000
41.00000 1376.000
41.24000 1319.000
41.48000 1364.000
41.72000 1362.000
41.96000 1320.000
42.20000 1572.000
42.44000 5661.000
42.68000 6467.000
42.92000 1776.000
43.16000 1449.000
43.40000 1336.000
43.64000 1321.000
43.88000 1318.000
44.12000 1259.000
44.36000 1241.000
44.60000 1241.000
44.84000 1277.000
45.08000 1195.000
45.32000 1245.000
45.56000 1233.000
45.80000 1211.000
46.04000 1149.000
46.28000 1150.000
46.52000 1208.000
46.76000 1192.000
47.00000 1167.000
47.24000 1156.000
47.48000 1153.000
47.72000 1157.000
47.96000 1102.000
48.20000 1130.000
48.44000 1140.000
48.68000 1090.000
48.92000 1076.000
49.16000 1116.000
49.40000 1685.000
49.64000 2318.000
49.88000 1237.000
50.12000 1066.000
50.36000 1048.000
50.60000 1029.000
50.84000 1022.000
51.08000 1052.000
51.32000 1051.000
51.56000 1062.000
51.80000 1031.000
52.04000 1073.000
52.28000 1002.000
52.52000 1039.000
52.76000 1053.000
53.00000 1028.000
53.24000 1071.000
53.48000 1022.000
53.72000 1023.000
53.96000 967.000
54.20000 997.000
54.44000 1012.000
54.68000 1005.000
54.92000 1068.000
55.16000 1077.000
55.40000 1060.000
55.64000 1000.000
55.88000 1089.000
56.12000 1035.000
56.36000 990.000
56.60000 984.000
56.84000 999.000
57.08000 1031.000
57.32000 1020.000
57.56000 1024.000
57.80000 1006.000
58.04000 977.000
58.28000 1016.000
58.52000 1058.000
58.76000 1043.000
59.00000 979.000
59.24000 1005.000
59.48000 1004.000
59.72000 997.000
59.96000 1011.000
60.20000 985.000
60.44000 1005.000
60.68000 997.000
60.92000 972.000
61.16000 1030.000
61.40000 984.000
61.64000 1043.000
61.88000 1059.000
62.12000 985.000
62.36000 975.000
62.60000 995.000
62.84000 1042.000
63.08000 969.000
63.32000 999.000
63.56000 974.000
63.80000 1012.000
64.04000 963.000
64.28000 989.000
64.52000 908.000
64.76000 917.000
65.00000 968.000
65.24000 935.000
65.48000 984.000
65.72000 976.000
65.96000 1043.000
66.20000 1003.000
66.44000 963.000
66.68000 871.000
66.92000 912.000
67.16000 894.000
67.40000 879.000
67.64000 938.000
67.88000 876.000
68.12000 900.000
68.36000 870.000
68.60000 847.000
68.84000 865.000
69.08000 850.000
69.32000 853.000
69.56000 874.000
69.80000 898.000
69.92000 844.000

File: 72.xy
5.00000 4882.000
5.24000 4701.000
5.48000 4369.000
5.72000 4151.000
5.96000 3974.000
6.20000 3936.000
6.44000 3709.000
6.68000 3483.000
6.92000 3365.000
7.16000 3288.000
7.40000 3253.000
7.64000 3054.000
7.88000 2865.000
8.12000 2837.000
8.36000 2825.000
8.60000 2708.000
8.84000 2624.000
9.08000 2565.000
9.32000 2493.000
9.56000 2367.000
9.80000 2348.000
10.04000 2276.000
10.28000 2201.000
10.52000 2222.000
10.76000 2144.000
11.00000 2208.000
11.24000 2165.000
11.48000 2036.000
11.72000 2056.000
11.96000 2144.000
12.20000 2259.000
12.44000 2004.000
12.68000 2173.000
12.92000 2269.000
13.16000 2101.000
13.40000 2082.000
13.64000 2107.000
13.88000 2129.000
14.12000 2187.000
14.36000 2177.000
14.60000 2170.000
14.84000 2271.000
15.08000 2489.000
15.32000 2183.000
15.56000 2180.000
15.80000 2051.000
16.04000 2175.000
16.28000 2195.000
16.52000 2118.000
16.76000 2420.000
17.00000 2452.000
17.24000 2399.000
17.48000 2338.000
17.72000 2418.000
17.96000 2554.000
18.20000 4021.000
18.44000 4469.000
18.68000 2812.000
18.92000 2684.000
19.16000 2980.000
19.40000 2790.000
19.64000 2752.000
19.88000 2705.000
20.12000 2751.000
20.36000 2996.000
20.60000 2900.000
20.84000 3063.000
21.08000 3210.000
21.32000 3154.000
21.56000 3192.000
21.80000 3116.000
22.04000 3258.000
22.28000 3247.000
22.52000 3248.000
22.76000 3313.000
23.00000 3365.000
23.24000 3353.000
23.48000 3407.000
23.72000 3570.000
23.96000 3696.000
24.20000 3815.000
24.44000 4953.000
24.68000 4908.000
24.92000 3791.000
25.16000 4370.000
25.40000 9792.000
25.64000 11058.000
25.88000 6145.000
26.12000 4306.000
26.36000 3782.000
26.60000 3310.000
26.84000 3347.000
27.08000 3350.000
27.32000 3361.000
27.56000 3519.000
27.80000 3303.000
28.04000 3197.000
28.28000 3079.000
28.52000 2989.000
28.76000 3041.000
29.00000 3081.000
29.24000 3098.000
29.48000 3025.000
29.72000 3613.000
29.96000 3506.000
30.20000 3012.000
30.44000 3731.000
30.68000 3578.000
30.92000 2817.000
31.16000 2683.000
31.40000 2519.000
31.64000 2517.000
31.88000 2536.000
32.12000 2436.000
32.36000 2412.000
32.60000 2442.000
32.84000 2324.000
33.08000 2351.000
33.32000 2169.000
33.56000 2144.000
33.80000 2091.000
34.04000 2099.000
34.28000 2009.000
34.52000 1943.000
34.76000 1828.000
35.00000 1885.000
35.24000 1879.000
35.48000 1830.000
35.72000 1789.000
35.96000 1733.000
36.20000 1660.000
36.44000 1678.000
36.68000 1607.000
36.92000 1606.000
37.16000 1554.000
37.40000 1528.000
37.64000 1471.000
37.88000 1537.000
38.12000 1478.000
38.36000 1449.000
38.60000 1445.000
38.84000 1492.000
39.08000 1527.000
39.32000 2113.000
39.56000 1394.000
39.80000 1491.000
40.04000 1497.000
40.28000 1513.000
40.52000 1365.000
40.76000 1526.000
41.00000 1402.000
41.24000 1424.000
41.48000 1475.000
41.72000 1432.000
41.96000 1462.000
42.20000 1493.000
42.44000 1524.000
42.68000 1627.000
42.92000 1736.000
43.16000 1648.000
43.40000 1497.000
43.64000 1395.000
43.88000 1416.000
44.12000 1370.000
44.36000 1326.000
44.60000 1357.000
44.84000 1361.000
45.08000 1339.000
45.32000 1342.000
45.56000 1317.000
45.80000 1370.000
46.04000 1380.000
46.28000 1293.000
46.52000 1412.000
46.76000 1390.000
47.00000 1287.000
47.24000 1271.000
47.48000 1295.000
47.72000 1272.000
47.96000 1261.000
48.20000 1238.000
48.44000 1261.000
48.68000 1274.000
48.92000 1246.000
49.16000 1240.000
49.40000 1184.000
49.64000 1232.000
49.88000 1186.000
50.12000 1257.000
50.36000 1215.000
50.60000 1294.000
50.84000 1331.000
51.08000 1197.000
51.32000 1229.000
51.56000 1155.000
51.80000 1219.000
52.04000 1292.000
52.28000 1596.000
52.52000 1909.000
52.76000 1506.000
53.00000 1284.000
53.24000 1261.000
53.48000 1196.000
53.72000 1153.000
53.96000 1178.000
54.20000 1196.000
54.44000 1142.000
54.68000 1147.000
54.92000 1099.000
55.16000 1161.000
55.40000 1094.000
55.64000 1179.000
55.88000 1136.000
56.12000 1215.000
56.36000 1158.000
56.60000 1160.000
56.84000 1096.000
57.08000 1166.000
57.32000 1147.000
57.56000 1081.000
57.80000 1055.000
58.04000 1153.000
58.28000 1107.000
58.52000 1124.000
58.76000 1105.000
59.00000 1129.000
59.24000 1132.000
59.48000 1110.000
59.72000 1160.000
59.96000 1092.000
60.20000 1160.000
60.44000 1154.000
60.68000 1183.000
60.92000 1088.000
61.16000 1142.000
61.40000 1111.000
61.64000 1138.000
61.88000 1132.000
62.12000 1143.000
62.36000 1131.000
62.60000 1160.000
62.84000 1039.000
63.08000 1101.000
63.32000 1089.000
63.56000 1106.000
63.80000 1161.000
64.04000 1114.000
64.28000 1141.000
64.52000 1113.000
64.76000 1109.000
65.00000 1050.000
65.24000 1018.000
65.48000 1088.000
65.72000 1074.000
65.96000 1074.000
66.20000 1087.000
66.44000 1029.000
66.68000 1035.000
66.92000 1004.000
67.16000 1007.000
67.40000 1009.000
67.64000 1053.000
67.88000 1026.000
68.12000 1054.000
68.36000 971.000
68.60000 994.000
68.84000 956.000
69.08000 963.000
69.32000 978.000
69.56000 985.000
69.80000 1001.000
69.92000 949.000