Folder: campaign1/XRD (part 12)

File: 63.xy
5.00000 3389.000
5.24000 3146.000
5.48000 3041.000
5.72000 3074.000
5.96000 3234.000
6.20000 4400.000
6.44000 4923.000
6.68000 17387.000
6.92000 35747.000
7.16000 5222.000
7.40000 4429.000
7.64000 4737.000
7.88000 4895.000
8.12000 5136.000
8.36000 6451.000
8.60000 6173.000
8.84000 17579.000
9.08000 192393.600
9.32000 509938.700
9.56000 9522.000
9.80000 3360.000
10.04000 12115.000
10.28000 8720.000
10.52000 1754.000
10.76000 1368.000
11.00000 1349.000
11.24000 1247.000
11.48000 1302.000
11.72000 1929.000
11.96000 3333.000
12.20000 1205.000
12.44000 1121.000
12.68000 1104.000
12.92000 1035.000
13.16000 1085.000
13.40000 1245.000
13.64000 1916.000
13.88000 1129.000
14.12000 1096.000
14.36000 1102.000
14.60000 1090.000
14.84000 1054.000
15.08000 1120.000
15.32000 1100.000
15.56000 1137.000
15.80000 1102.000
16.04000 1154.000
16.28000 1106.000
16.52000 1179.000
16.76000 1223.000
17.00000 1265.000
17.24000 1309.000
17.48000 1341.000
17.72000 1398.000
17.96000 1519.000
18.20000 2455.000
18.44000 17902.000
18.68000 2751.000
18.92000 1572.000
19.16000 1574.000
19.40000 1689.000
19.64000 1742.000
19.88000 2023.000
20.12000 4487.000
20.36000 15442.000
20.60000 2373.000
20.84000 1913.000
21.08000 1914.000
21.32000 1891.000
21.56000 1955.000
21.80000 1950.000
22.04000 1970.000
22.28000 2039.000
22.52000 1944.000
22.76000 2008.000
23.00000 2022.000
23.24000 2021.000
23.48000 2001.000
23.72000 2013.000
23.96000 2170.000
24.20000 2070.000
24.44000 2077.000
24.68000 2031.000
24.92000 2053.000
25.16000 2070.000
25.40000 2086.000
25.64000 1883.000
25.88000 2060.000
26.12000 2077.000
26.36000 1969.000
26.60000 2207.000
26.84000 2131.000
27.08000 2445.000
27.32000 3190.000
27.56000 10136.000
27.80000 67444.000
28.04000 16030.000
28.28000 2870.000
28.52000 2130.000
28.76000 1858.000
29.00000 1753.000
29.24000 1776.000
29.48000 1687.000
29.72000 1731.000
29.96000 1723.000
30.20000 1790.000
30.44000 2895.000
30.68000 7510.000
30.92000 2121.000
31.16000 1735.000
31.40000 1624.000
31.64000 1519.000
31.88000 1491.000
32.12000 1467.000
32.36000 1479.000
32.60000 1401.000
32.84000 1378.000
33.08000 1391.000
33.32000 1329.000
33.56000 1537.000
33.80000 1338.000
34.04000 1411.000
34.28000 1476.000
34.52000 1973.000
34.76000 1395.000
35.00000 1196.000
35.24000 1210.000
35.48000 1205.000
35.72000 1323.000
35.96000 1327.000
36.20000 1336.000
36.44000 1440.000
36.68000 1710.000
36.92000 3271.000
37.16000 30015.000
37.40000 66633.000
37.64000 17972.000
37.88000 1905.000
38.12000 1311.000
38.36000 1110.000
38.60000 952.000
38.84000 882.000
39.08000 907.000
39.32000 857.000
39.56000 791.000
39.80000 860.000
40.04000 832.000
40.28000 846.000
40.52000 786.000
40.76000 834.000
41.00000 921.000
41.24000 1327.000
41.48000 1096.000
41.72000 1137.000
41.96000 888.000
42.20000 845.000
42.44000 841.000
42.68000 820.000
42.92000 844.000
43.16000 787.000
43.40000 848.000
43.64000 810.000
43.88000 772.000
44.12000 784.000
44.36000 816.000
44.60000 758.000
44.84000 815.000
45.08000 808.000
45.32000 821.000
45.56000 830.000
45.80000 723.000
46.04000 767.000
46.28000 848.000
46.52000 838.000
46.76000 1194.000
47.00000 5990.000
47.24000 7672.000
47.48000 4280.000
47.72000 904.000
47.96000 753.000
48.20000 753.000
48.44000 720.000
48.68000 701.000
48.92000 712.000
49.16000 692.000
49.40000 664.000
49.64000 664.000
49.88000 652.000
50.12000 649.000
50.36000 618.000
50.60000 657.000
50.84000 643.000
51.08000 663.000
51.32000 652.000
51.56000 650.000
51.80000 716.000
52.04000 1028.000
52.28000 1386.000
52.52000 917.000
52.76000 698.000
53.00000 654.000
53.24000 670.000
53.48000 691.000
53.72000 616.000
53.96000 604.000
54.20000 599.000
54.44000 625.000
54.68000 626.000
54.92000 651.000
55.16000 622.000
55.40000 632.000
55.64000 624.000
55.88000 651.000
56.12000 608.000
56.36000 614.000
56.60000 634.000
56.84000 638.000
57.08000 725.000
57.32000 784.000
57.56000 714.000
57.80000 658.000
58.04000 624.000
58.28000 630.000
58.52000 637.000
58.76000 616.000
59.00000 645.000
59.24000 617.000
59.48000 620.000
59.72000 665.000
59.96000 616.000
60.20000 596.000
60.44000 631.000
60.68000 611.000
60.92000 598.000
61.16000 623.000
61.40000 573.000
61.64000 627.000
61.88000 618.000
62.12000 588.000
62.36000 645.000
62.60000 614.000
62.84000 616.000
63.08000 586.000
63.32000 621.000
63.56000 701.000
63.80000 659.000
64.04000 628.000
64.28000 574.000
64.52000 597.000
64.76000 606.000
65.00000 626.000
65.24000 573.000
65.48000 575.000
65.72000 579.000
65.96000 566.000
66.20000 575.000
66.44000 551.000
66.68000 523.000
66.92000 580.000
67.16000 576.000
67.40000 578.000
67.64000 645.000
67.88000 1113.000
68.12000 1042.000
68.36000 1080.000
68.60000 772.000
68.84000 584.000
69.08000 545.000
69.32000 567.000
69.56000 555.000
69.80000 572.000
69.92000 512.000

File: 64.xy
5.00000 3255.000
5.24000 3431.000
5.48000 3961.000
5.72000 4857.000
5.96000 4052.000
6.20000 2968.000
6.44000 2611.000
6.68000 2133.000
6.92000 2073.000
7.16000 1962.000
7.40000 1911.000
7.64000 1845.000
7.88000 1853.000
8.12000 1844.000
8.36000 2017.000
8.60000 2906.000
8.84000 2692.000
9.08000 5934.000
9.32000 34735.000
9.56000 403825.900
9.80000 11276.000
10.04000 2684.000
10.28000 1855.000
10.52000 1521.000
10.76000 1417.000
11.00000 1316.000
11.24000 1326.000
11.48000 1318.000
11.72000 1191.000
11.96000 1046.000
12.20000 1176.000
12.44000 1096.000
12.68000 1025.000
12.92000 1082.000
13.16000 1083.000
13.40000 1033.000
13.64000 1114.000
13.88000 1060.000
14.12000 1043.000
14.36000 1077.000
14.60000 1128.000
14.84000 1150.000
15.08000 1114.000
15.32000 1122.000
15.56000 1242.000
15.80000 1168.000
16.04000 1218.000
16.28000 1223.000
16.52000 1211.000
16.76000 1242.000
17.00000 1232.000
17.24000 1363.000
17.48000 1408.000
17.72000 1405.000
17.96000 1404.000
18.20000 1428.000
18.44000 1539.000
18.68000 1626.000
18.92000 2084.000
19.16000 2600.000
19.40000 1748.000
19.64000 1692.000
19.88000 1719.000
20.12000 1768.000
20.36000 1812.000
20.60000 1722.000
20.84000 1773.000
21.08000 1898.000
21.32000 1867.000
21.56000 1916.000
21.80000 1983.000
22.04000 2029.000
22.28000 1917.000
22.52000 2037.000
22.76000 2022.000
23.00000 2047.000
23.24000 1995.000
23.48000 2085.000
23.72000 2030.000
23.96000 2008.000
24.20000 2101.000
24.44000 2043.000
24.68000 2019.000
24.92000 1975.000
25.16000 2008.000
25.40000 2054.000
25.64000 2003.000
25.88000 2019.000
26.12000 1968.000
26.36000 1900.000
26.60000 1957.000
26.84000 1889.000
27.08000 1905.000
27.32000 1964.000
27.56000 1959.000
27.80000 1840.000
28.04000 1933.000
28.28000 2086.000
28.52000 3185.000
28.76000 18346.000
29.00000 2871.000
29.24000 1859.000
29.48000 1714.000
29.72000 1722.000
29.96000 1712.000
30.20000 1714.000
30.44000 1665.000
30.68000 1639.000
30.92000 1570.000
31.16000 1519.000
31.40000 1520.000
31.64000 1491.000
31.88000 1494.000
32.12000 1446.000
32.36000 1464.000
32.60000 1408.000
32.84000 1331.000
33.08000 1310.000
33.32000 1328.000
33.56000 1295.000
33.80000 1302.000
34.04000 1232.000
34.28000 1248.000
34.52000 1164.000
34.76000 1184.000
35.00000 1183.000
35.24000 1111.000
35.48000 1096.000
35.72000 1045.000
35.96000 1044.000
36.20000 1022.000
36.44000 1035.000
36.68000 976.000
36.92000 959.000
37.16000 981.000
37.40000 923.000
37.64000 988.000
37.88000 1003.000
38.12000 1068.000
38.36000 1687.000
38.60000 12267.000
38.84000 3249.000
39.08000 1070.000
39.32000 965.000
39.56000 881.000
39.80000 852.000
40.04000 836.000
40.28000 817.000
40.52000 830.000
40.76000 814.000
41.00000 822.000
41.24000 806.000
41.48000 839.000
41.72000 810.000
41.96000 724.000
42.20000 815.000
42.44000 789.000
42.68000 798.000
42.92000 727.000
43.16000 796.000
43.40000 770.000
43.64000 784.000
43.88000 802.000
44.12000 742.000
44.36000 805.000
44.60000 736.000
44.84000 785.000
45.08000 732.000
45.32000 750.000
45.56000 739.000
45.80000 742.000
46.04000 743.000
46.28000 703.000
46.52000 744.000
46.76000 733.000
47.00000 718.000
47.24000 723.000
47.48000 716.000
47.72000 732.000
47.96000 677.000
48.20000 752.000
48.44000 809.000
48.68000 1593.000
48.92000 3123.000
49.16000 899.000
49.40000 693.000
49.64000 693.000
49.88000 663.000
50.12000 660.000
50.36000 666.000
50.60000 650.000
50.84000 663.000
51.08000 628.000
51.32000 627.000
51.56000 669.000
51.80000 619.000
52.04000 676.000
52.28000 651.000
52.52000 618.000
52.76000 650.000
53.00000 650.000
53.24000 611.000
53.48000 610.000
53.72000 645.000
53.96000 631.000
54.20000 662.000
54.44000 632.000
54.68000 596.000
54.92000 629.000
55.16000 617.000
55.40000 620.000
55.64000 628.000
55.88000 638.000
56.12000 632.000
56.36000 615.000
56.60000 598.000
56.84000 627.000
57.08000 632.000
57.32000 592.000
57.56000 618.000
57.80000 620.000
58.04000 621.000
58.28000 617.000
58.52000 603.000
58.76000 637.000
59.00000 689.000
59.24000 620.000
59.48000 665.000
59.72000 626.000
59.96000 649.000
60.20000 630.000
60.44000 587.000
60.68000 622.000
60.92000 632.000
61.16000 642.000
61.40000 578.000
61.64000 670.000
61.88000 637.000
62.12000 618.000
62.36000 634.000
62.60000 685.000
62.84000 666.000
63.08000 587.000
63.32000 542.000
63.56000 620.000
63.80000 605.000
64.04000 576.000
64.28000 598.000
64.52000 605.000
64.76000 558.000
65.00000 630.000
65.24000 609.000
65.48000 597.000
65.72000 565.000
65.96000 588.000
66.20000 527.000
66.44000 598.000
66.68000 548.000
66.92000 559.000
67.16000 610.000
67.40000 608.000
67.64000 566.000
67.88000 556.000
68.12000 513.000
68.36000 537.000
68.60000 518.000
68.84000 566.000
69.08000 516.000
69.32000 545.000
69.56000 527.000
69.80000 512.000
69.92000 537.000

File: 65.xy
5.00000 4729.000
5.24000 4510.000
5.48000 4394.000
5.72000 4109.000
5.96000 3894.000
6.20000 3732.000
6.44000 3600.000
6.68000 3530.000
6.92000 3323.000
7.16000 3225.000
7.40000 3123.000
7.64000 3016.000
7.88000 2909.000
8.12000 2867.000
8.36000 2791.000
8.60000 2780.000
8.84000 2596.000
9.08000 2500.000
9.32000 2405.000
9.56000 2428.000
9.80000 2333.000
10.04000 2305.000
10.28000 2301.000
10.52000 2284.000
10.76000 2217.000
11.00000 2238.000
11.24000 2176.000
11.48000 2075.000
11.72000 2010.000
11.96000 2031.000
12.20000 2001.000
12.44000 2054.000
12.68000 2105.000
12.92000 2033.000
13.16000 2072.000
13.40000 2771.000
13.64000 2665.000
13.88000 2043.000
14.12000 2114.000
14.36000 1981.000
14.60000 2027.000
14.84000 2041.000
15.08000 2139.000
15.32000 2684.000
15.56000 5954.000
15.80000 4038.000
16.04000 2203.000
16.28000 2036.000
16.52000 2092.000
16.76000 2146.000
17.00000 2157.000
17.24000 2179.000
17.48000 2234.000
17.72000 2265.000
17.96000 2530.000
18.20000 2378.000
18.44000 2364.000
18.68000 2444.000
18.92000 2440.000
19.16000 2544.000
19.40000 2578.000
19.64000 2661.000
19.88000 2703.000
20.12000 2674.000
20.36000 2897.000
20.60000 2869.000
20.84000 2789.000
21.08000 2955.000
21.32000 2952.000
21.56000 3178.000
21.80000 3438.000
22.04000 6558.000
22.28000 8854.000
22.52000 3481.000
22.76000 3260.000
23.00000 3265.000
23.24000 3170.000
23.48000 3262.000
23.72000 3209.000
23.96000 3317.000
24.20000 3353.000
24.44000 3182.000
24.68000 3201.000
24.92000 3162.000
25.16000 3161.000
25.40000 3238.000
25.64000 3151.000
25.88000 3268.000
26.12000 3984.000
26.36000 3413.000
26.60000 3086.000
26.84000 3204.000
27.08000 5175.000
27.32000 10704.000
27.56000 4791.000
27.80000 2999.000
28.04000 2856.000
28.28000 2857.000
28.52000 2841.000
28.76000 2881.000
29.00000 2696.000
29.24000 2676.000
29.48000 3247.000
29.72000 3045.000
29.96000 2663.000
30.20000 2659.000
30.44000 2733.000
30.68000 2756.000
30.92000 2804.000
31.16000 2973.000
31.40000 4988.000
31.64000 14757.000
31.88000 6910.000
32.12000 2436.000
32.36000 2261.000
32.60000 2255.000
32.84000 2151.000
33.08000 2280.000
33.32000 2087.000
33.56000 2133.000
33.80000 2320.000
34.04000 2446.000
34.28000 2063.000
34.52000 2001.000
34.76000 1935.000
35.00000 1780.000
35.24000 1853.000
35.48000 2138.000
35.72000 1893.000
35.96000 1636.000
36.20000 1657.000
36.44000 1580.000
36.68000 1543.000
36.92000 1554.000
37.16000 1525.000
37.40000 1475.000
37.64000 1482.000
37.88000 1545.000
38.12000 1413.000
38.36000 1383.000
38.60000 1467.000
38.84000 1723.000
39.08000 2385.000
39.32000 1591.000
39.56000 1361.000
39.80000 1335.000
40.04000 1382.000
40.28000 1341.000
40.52000 1306.000
40.76000 1291.000
41.00000 1403.000
41.24000 1408.000
41.48000 1543.000
41.72000 1523.000
41.96000 1350.000
42.20000 1325.000
42.44000 1330.000
42.68000 1292.000
42.92000 1290.000
43.16000 1383.000
43.40000 1334.000
43.64000 1297.000
43.88000 1327.000
44.12000 1429.000
44.36000 1482.000
44.60000 1406.000
44.84000 1428.000
45.08000 1685.000
45.32000 3347.000
45.56000 3350.000
45.80000 1497.000
46.04000 1303.000
46.28000 1221.000
46.52000 1276.000
46.76000 1264.000
47.00000 1196.000
47.24000 1181.000
47.48000 1297.000
47.72000 1180.000
47.96000 1164.000
48.20000 1347.000
48.44000 1422.000
48.68000 1235.000
48.92000 1111.000
49.16000 1146.000
49.40000 1179.000
49.64000 1202.000
49.88000 1110.000
50.12000 1092.000
50.36000 1200.000
50.60000 1152.000
50.84000 1156.000
51.08000 1487.000
51.32000 1388.000
51.56000 1157.000
51.80000 1139.000
52.04000 1154.000
52.28000 1106.000
52.52000 1159.000
52.76000 1123.000
53.00000 1126.000
53.24000 1135.000
53.48000 1149.000
53.72000 1265.000
53.96000 1262.000
54.20000 1161.000
54.44000 1091.000
54.68000 1129.000
54.92000 1115.000
55.16000 1100.000
55.40000 1155.000
55.64000 1099.000
55.88000 1195.000
56.12000 1348.000
56.36000 2440.000
56.60000 2483.000
56.84000 1393.000
57.08000 1130.000
57.32000 1236.000
57.56000 1136.000
57.80000 1125.000
58.04000 1148.000
58.28000 1148.000
58.52000 1152.000
58.76000 1088.000
59.00000 1156.000
59.24000 1181.000
59.48000 1156.000
59.72000 1071.000
59.96000 1117.000
60.20000 1118.000
60.44000 1111.000
60.68000 1055.000
60.92000 1083.000
61.16000 1180.000
61.40000 1302.000
61.64000 1222.000
61.88000 1095.000
62.12000 1055.000
62.36000 1055.000
62.60000 1118.000
62.84000 1089.000
63.08000 1077.000
63.32000 1150.000
63.56000 1082.000
63.80000 1104.000
64.04000 1065.000
64.28000 1046.000
64.52000 1065.000
64.76000 1027.000
65.00000 1071.000
65.24000 1047.000
65.48000 1106.000
65.72000 1078.000
65.96000 1105.000
66.20000 1436.000
66.44000 1329.000
66.68000 1087.000
66.92000 1062.000
67.16000 1009.000
67.40000 1049.000
67.64000 963.000
67.88000 1019.000
68.12000 1051.000
68.36000 1007.000
68.60000 995.000
68.84000 972.000
69.08000 929.000
69.32000 993.000
69.56000 948.000
69.80000 918.000
69.92000 997.000

File: 66.xy
5.00000 234.000
5.20000 209.000
5.40000 208.000
5.60000 219.000
5.80000 189.000
6.00000 209.000
6.20000 187.000
6.40000 186.000
6.60000 171.000
6.80000 158.000
7.00000 168.000
7.20000 179.000
7.40000 181.000
7.60000 151.000
7.80000 149.000
8.00000 128.000
8.20000 151.000
8.40000 163.000
8.60000 139.000
8.80000 156.000
9.00000 155.000
9.20000 156.000
9.40000 151.000
9.60000 121.000
9.80000 110.000
10.00000 133.000
10.20000 110.000
10.40000 114.000
10.60000 130.000
10.80000 95.000
11.00000 98.000
11.20000 133.000
11.40000 121.000
11.60000 94.000
11.80000 117.000
12.00000 101.000
12.20000 112.000
12.40000 110.000
12.60000 111.000
12.80000 165.000
13.00000 107.000
13.20000 116.000
13.40000 91.000
13.60000 97.000
13.80000 116.000
14.00000 104.000
14.20000 100.000
14.40000 94.000
14.60000 95.000
14.80000 100.000
15.00000 101.000
15.20000 85.000
15.40000 101.000
15.60000 126.000
15.80000 199.000
16.00000 109.000
16.20000 74.000
16.40000 89.000
16.60000 100.000
16.80000 107.000
17.00000 99.000
17.20000 81.000
17.40000 75.000
17.60000 84.000
17.80000 87.000
18.00000 103.000
18.20000 109.000
18.40000 91.000
18.60000 83.000
18.80000 102.000
19.00000 90.000
19.20000 102.000
19.40000 95.000
19.60000 87.000
19.80000 104.000
20.00000 92.000
20.20000 157.000
20.40000 250.000
20.60000 930.000
20.80000 250.000
21.00000 94.000
21.20000 92.000
21.40000 91.000
21.60000 89.000
21.80000 103.000
22.00000 105.000
22.20000 202.000
22.40000 420.000
22.60000 159.000
22.80000 116.000
23.00000 118.000
23.20000 120.000
23.40000 199.000
23.60000 153.000
23.80000 129.000
24.00000 106.000
24.20000 103.000
24.40000 110.000
24.60000 93.000
24.80000 134.000
25.00000 122.000
25.20000 98.000
25.40000 97.000
25.60000 99.000
25.80000 172.000
26.00000 207.000
26.20000 143.000
26.40000 161.000
26.60000 147.000
26.80000 134.000
27.00000 149.000
27.20000 309.000
27.40000 491.000
27.60000 646.000
27.80000 215.000
28.00000 344.000
28.20000 158.000
28.40000 127.000
28.60000 190.000
28.80000 246.000
29.00000 355.000
29.20000 1531.000
29.40000 3831.000
29.60000 361.000
29.80000 215.000
30.00000 170.000
30.20000 99.000
30.40000 107.000
30.60000 105.000
30.80000 125.000
31.00000 116.000
31.20000 103.000
31.40000 127.000
31.60000 203.000
31.80000 569.000
32.00000 595.000
32.20000 127.000
32.40000 121.000
32.60000 76.000
32.80000 96.000
33.00000 98.000
33.20000 97.000
33.40000 104.000
33.60000 118.000
33.80000 128.000
34.00000 103.000
34.20000 89.000
34.40000 109.000
34.60000 118.000
34.80000 105.000
35.00000 78.000
35.20000 72.000
35.40000 78.000
35.60000 106.000
35.80000 102.000
36.00000 129.000
36.20000 134.000
36.40000 68.000
36.60000 113.000
36.80000 107.000
37.00000 115.000
37.20000 105.000
37.40000 98.000
37.60000 119.000
37.80000 83.000
38.00000 136.000
38.20000 134.000
38.40000 88.000
38.60000 97.000
38.80000 89.000
39.00000 98.000
39.20000 194.000
39.40000 254.000
39.60000 118.000
39.80000 94.000
40.00000 99.000
40.20000 81.000
40.40000 86.000
40.60000 98.000
40.80000 100.000
41.00000 86.000
41.20000 100.000
41.40000 99.000
41.60000 95.000
41.80000 295.000
42.00000 1259.000
42.20000 358.000
42.40000 139.000
42.60000 116.000
42.80000 102.000
43.00000 95.000
43.20000 84.000
43.40000 70.000
43.60000 116.000
43.80000 91.000
44.00000 90.000
44.20000 90.000
44.40000 86.000
44.60000 88.000
44.80000 90.000
45.00000 99.000
45.20000 75.000
45.40000 124.000
45.60000 255.000
45.80000 406.000
46.00000 180.000
46.20000 95.000
46.40000 94.000
46.60000 102.000
46.80000 109.000
47.00000 100.000
47.20000 248.000
47.40000 177.000
47.60000 107.000
47.80000 115.000
48.00000 113.000
48.20000 133.000
48.40000 141.000
48.60000 101.000
48.80000 103.000
49.00000 81.000
49.20000 98.000
49.40000 87.000
49.60000 101.000
49.80000 113.000
50.00000 86.000
50.20000 134.000
50.40000 109.000
50.60000 102.000
50.80000 89.000
51.00000 107.000
51.20000 93.000
51.40000 120.000
51.60000 138.000
51.80000 201.000
52.00000 1159.000
52.20000 1180.000
52.40000 226.000
52.60000 112.000
52.80000 105.000
53.00000 93.000
53.20000 81.000
53.40000 77.000
53.60000 92.000
53.80000 82.000
54.00000 115.000
54.20000 214.000
54.40000 179.000
54.60000 109.000
54.80000 91.000
55.00000 88.000
55.20000 79.000
55.40000 86.000
55.60000 101.000
55.80000 78.000
56.00000 71.000
56.20000 87.000
56.40000 78.000
56.60000 98.000
56.80000 147.000
57.00000 139.000
57.20000 87.000
57.40000 87.000
57.60000 84.000
57.80000 90.000
58.00000 72.000
58.20000 65.000
58.40000 84.000
58.60000 78.000
58.80000 66.000
59.00000 87.000
59.20000 76.000
59.40000 82.000
59.60000 74.000
59.80000 64.000
59.96000 69.000

File: 67.xy
5.00000 4737.000
5.24000 4673.000
5.48000 4370.000
5.72000 4218.000
5.96000 3968.000
6.20000 3708.000
6.44000 3691.000
6.68000 3501.000
6.92000 3421.000
7.16000 3257.000
7.40000 3164.000
7.64000 3066.000
7.88000 3000.000
8.12000 3172.000
8.36000 5576.000
8.60000 3888.000
8.84000 3203.000
9.08000 7261.000
9.32000 12484.000
9.56000 4884.000
9.80000 2796.000
10.04000 2517.000
10.28000 2364.000
10.52000 2301.000
10.76000 2737.000
11.00000 4710.000
11.24000 3180.000
11.48000 2170.000
11.72000 2138.000
11.96000 2330.000
12.20000 2593.000
12.44000 2518.000
12.68000 2684.000
12.92000 2793.000
13.16000 2998.000
13.40000 4550.000
13.64000 15264.000
13.88000 107920.000
14.12000 55615.000
14.36000 5798.000
14.60000 3020.000
14.84000 2436.000
15.08000 2164.000
15.32000 2065.000
15.56000 1905.000
15.80000 1872.000
16.04000 1925.000
16.28000 2065.000
16.52000 2695.000
16.76000 13826.000
17.00000 13778.000
17.24000 2381.000
17.48000 1985.000
17.72000 1992.000
17.96000 1911.000
18.20000 2086.000
18.44000 2660.000
18.68000 5476.000
18.92000 2851.000
19.16000 2271.000
19.40000 2240.000
19.64000 2171.000
19.88000 2157.000
20.12000 2274.000
20.36000 2353.000
20.60000 2442.000
20.84000 2466.000
21.08000 2740.000
21.32000 2619.000
21.56000 2527.000
21.80000 2687.000
22.04000 2715.000
22.28000 3018.000
22.52000 3032.000
22.76000 3342.000
23.00000 4619.000
23.24000 21174.000
23.48000 51274.000
23.72000 14985.000
23.96000 4265.000
24.20000 3433.000
24.44000 3430.000
24.68000 3322.000
24.92000 3917.000
25.16000 8188.000
25.40000 43977.000
25.64000 29564.000
25.88000 4445.000
26.12000 6257.000
26.36000 4767.000
26.60000 3044.000
26.84000 3177.000
27.08000 3398.000
27.32000 4101.000
27.56000 4328.000
27.80000 6831.000
28.04000 33114.000
28.28000 57334.000
28.52000 14906.000
28.76000 4906.000
29.00000 3468.000
29.24000 3316.000
29.48000 3437.000
29.72000 3324.000
29.96000 2902.000
30.20000 2721.000
30.44000 2781.000
30.68000 2874.000
30.92000 2652.000
31.16000 2717.000
31.40000 2921.000
31.64000 3322.000
31.88000 3534.000
32.12000 4017.000
32.36000 5051.000
32.60000 9606.000
32.84000 60817.000
33.08000 151324.000
33.32000 38578.000
33.56000 6819.000
33.80000 3901.000
34.04000 3482.000
34.28000 3135.000
34.52000 2327.000
34.76000 2106.000
35.00000 2011.000
35.24000 2077.000
35.48000 1958.000
35.72000 1980.000
35.96000 1998.000
36.20000 2380.000
36.44000 2600.000
36.68000 2688.000
36.92000 3014.000
37.16000 3627.000
37.40000 5114.000
37.64000 18849.000
37.88000 172048.300
38.12000 119505.200
38.36000 12006.000
38.60000 3341.000
38.84000 2395.000
39.08000 2048.000
39.32000 1867.000
39.56000 1750.000
39.80000 1645.000
40.04000 1791.000
40.28000 1513.000
40.52000 1464.000
40.76000 1698.000
41.00000 1613.000
41.24000 1548.000
41.48000 1532.000
41.72000 1593.000
41.96000 1385.000
42.20000 1593.000
42.44000 1758.000
42.68000 2952.000
42.92000 8352.000
43.16000 8045.000
43.40000 3297.000
43.64000 1539.000
43.88000 1472.000
44.12000 1437.000
44.36000 1343.000
44.60000 1307.000
44.84000 1359.000
45.08000 1380.000
45.32000 1440.000
45.56000 1612.000
45.80000 1395.000
46.04000 1213.000
46.28000 1317.000
46.52000 1268.000
46.76000 1257.000
47.00000 1309.000
47.24000 1278.000
47.48000 1272.000
47.72000 1691.000
47.96000 3209.000
48.20000 2603.000
48.44000 1550.000
48.68000 1264.000
48.92000 1191.000
49.16000 1181.000
49.40000 1256.000
49.64000 1265.000
49.88000 1220.000
50.12000 1178.000
50.36000 1138.000
50.60000 1208.000
50.84000 1259.000
51.08000 1270.000
51.32000 1251.000
51.56000 1243.000
51.80000 1475.000
52.04000 1703.000
52.28000 3500.000
52.52000 5095.000
52.76000 3877.000
53.00000 12821.000
53.24000 17869.000
53.48000 6093.000
53.72000 1984.000
53.96000 1480.000
54.20000 1318.000
54.44000 1258.000
54.68000 1214.000
54.92000 1155.000
55.16000 1132.000
55.40000 1081.000
55.64000 1128.000
55.88000 1079.000
56.12000 1146.000
56.36000 1149.000
56.60000 1077.000
56.84000 1144.000
57.08000 1051.000
57.32000 1151.000
57.56000 1274.000
57.80000 1234.000
58.04000 1344.000
58.28000 2706.000
58.52000 3773.000
58.76000 1996.000
59.00000 1225.000
59.24000 1117.000
59.48000 1039.000
59.72000 1144.000
59.96000 1174.000
60.20000 1161.000
60.44000 1109.000
60.68000 1083.000
60.92000 1006.000
61.16000 1129.000
61.40000 1086.000
61.64000 1144.000
61.88000 1343.000
62.12000 1466.000
62.36000 1246.000
62.60000 1111.000
62.84000 1081.000
63.08000 1104.000
63.32000 1163.000
63.56000 1213.000
63.80000 1988.000
64.04000 1922.000
64.28000 1241.000
64.52000 1102.000
64.76000 1032.000
65.00000 1051.000
65.24000 1060.000
65.48000 1014.000
65.72000 1034.000
65.96000 1017.000
66.20000 1092.000
66.44000 955.000
66.68000 1009.000
66.92000 1034.000
67.16000 1083.000
67.40000 990.000
67.64000 1025.000
67.88000 1007.000
68.12000 961.000
68.36000 976.000
68.60000 953.000
68.84000 975.000
69.08000 1054.000
69.32000 1314.000
69.56000 1546.000
69.80000 1292.000
69.92000 1106.000