Folder: campaign1/XRD (part 3)

File: 11.xy
5.00000 1412.000
5.20000 1361.000
5.40000 1171.000
5.60000 1206.000
5.80000 1123.000
6.00000 1082.000
6.20000 1021.000
6.40000 966.000
6.60000 916.000
6.80000 895.000
7.00000 806.000
7.20000 845.000
7.40000 808.000
7.60000 731.000
7.80000 790.000
8.00000 770.000
8.20000 732.000
8.40000 673.000
8.60000 676.000
8.80000 676.000
9.00000 612.000
9.20000 622.000
9.40000 639.000
9.60000 595.000
9.80000 605.000
10.00000 574.000
10.20000 598.000
10.40000 574.000
10.60000 544.000
10.80000 565.000
11.00000 542.000
11.20000 542.000
11.40000 582.000
11.60000 567.000
11.80000 542.000
12.00000 555.000
12.20000 610.000
12.40000 620.000
12.60000 608.000
12.80000 602.000
13.00000 699.000
13.20000 1290.000
13.40000 1982.000
13.60000 1604.000
13.80000 1137.000
14.00000 1491.000
14.20000 3047.000
14.40000 4977.000
14.60000 13061.000
14.80000 173448.200
15.00000 1211385.000
15.20000 54746.000
15.40000 15439.000
15.60000 7763.000
15.80000 3315.000
16.00000 1746.000
16.20000 1370.000
16.40000 1033.000
16.60000 999.000
16.80000 833.000
17.00000 800.000
17.20000 758.000
17.40000 724.000
17.60000 730.000
17.80000 722.000
18.00000 704.000
18.20000 680.000
18.40000 698.000
18.60000 728.000
18.80000 717.000
19.00000 730.000
19.20000 713.000
19.40000 712.000
19.60000 760.000
19.80000 710.000
20.00000 748.000
20.20000 768.000
20.40000 786.000
20.60000 752.000
20.80000 798.000
21.00000 790.000
21.20000 836.000
21.40000 801.000
21.60000 778.000
21.80000 818.000
22.00000 891.000
22.20000 856.000
22.40000 826.000
22.60000 803.000
22.80000 871.000
23.00000 825.000
23.20000 892.000
23.40000 876.000
23.60000 831.000
23.80000 882.000
24.00000 892.000
24.20000 849.000
24.40000 878.000
24.60000 892.000
24.80000 923.000
25.00000 917.000
25.20000 841.000
25.40000 887.000
25.60000 910.000
25.80000 838.000
26.00000 853.000
26.20000 858.000
26.40000 904.000
26.60000 831.000
26.80000 1079.000
27.00000 1400.000
27.20000 2222.000
27.40000 1039.000
27.60000 929.000
27.80000 987.000
28.00000 1044.000
28.20000 1072.000
28.40000 1111.000
28.60000 1253.000
28.80000 2947.000
29.00000 1836.000
29.20000 1767.000
29.40000 2244.000
29.60000 3445.000
29.80000 10676.000
30.00000 123802.000
30.20000 655015.600
30.40000 38312.000
30.60000 9480.000
30.80000 6673.000
31.00000 5303.000
31.20000 4258.000
31.40000 3103.000
31.60000 2263.000
31.80000 1804.000
32.00000 1375.000
32.20000 1114.000
32.40000 973.000
32.60000 948.000
32.80000 897.000
33.00000 854.000
33.20000 755.000
33.40000 825.000
33.60000 1095.000
33.80000 757.000
34.00000 689.000
34.20000 597.000
34.40000 610.000
34.60000 577.000
34.80000 563.000
35.00000 565.000
35.20000 536.000
35.40000 537.000
35.60000 496.000
35.80000 560.000
36.00000 520.000
36.20000 517.000
36.40000 480.000
36.60000 460.000
36.80000 426.000
37.00000 450.000
37.20000 415.000
37.40000 401.000
37.60000 413.000
37.80000 404.000
38.00000 408.000
38.20000 431.000
38.40000 423.000
38.60000 378.000
38.80000 386.000
39.00000 369.000
39.20000 377.000
39.40000 409.000
39.60000 364.000
39.80000 351.000
40.00000 379.000
40.20000 342.000
40.40000 361.000
40.60000 358.000
40.80000 398.000
41.00000 403.000
41.20000 434.000
41.40000 383.000
41.60000 368.000
41.80000 378.000
42.00000 390.000
42.20000 381.000
42.40000 368.000
42.60000 374.000
42.80000 365.000
43.00000 393.000
43.20000 378.000
43.40000 396.000
43.60000 364.000
43.80000 461.000
44.00000 425.000
44.20000 424.000
44.40000 393.000
44.60000 429.000
44.80000 420.000
45.00000 464.000
45.20000 495.000
45.40000 593.000
45.60000 1411.000
45.80000 14913.000
46.00000 29104.000
46.20000 2531.000
46.40000 887.000
46.60000 692.000
46.80000 604.000
47.00000 542.000
47.20000 511.000
47.40000 490.000
47.60000 461.000
47.80000 450.000
48.00000 395.000
48.20000 341.000
48.40000 359.000
48.60000 368.000
48.80000 325.000
49.00000 309.000
49.20000 314.000
49.40000 316.000
49.60000 292.000
49.80000 288.000
50.00000 295.000
50.20000 302.000
50.40000 304.000
50.60000 286.000
50.80000 329.000
51.00000 285.000
51.20000 310.000
51.40000 291.000
51.60000 312.000
51.80000 298.000
52.00000 282.000
52.20000 292.000
52.40000 297.000
52.60000 278.000
52.80000 255.000
53.00000 261.000
53.20000 308.000
53.40000 272.000
53.60000 284.000
53.80000 293.000
54.00000 269.000
54.20000 277.000
54.40000 287.000
54.60000 253.000
54.80000 282.000
55.00000 288.000
55.20000 274.000
55.40000 274.000
55.60000 297.000
55.80000 296.000
56.00000 317.000
56.20000 268.000
56.40000 270.000
56.60000 273.000
56.80000 271.000
57.00000 271.000
57.20000 293.000
57.40000 310.000
57.60000 287.000
57.80000 291.000
58.00000 249.000
58.20000 308.000
58.40000 301.000
58.60000 296.000
58.80000 266.000
59.00000 276.000
59.20000 282.000
59.40000 295.000
59.60000 327.000
59.80000 363.000
59.92000 328.000

File: 12.xy
5.00000 995.000
5.20000 977.000
5.40000 934.000
5.60000 914.000
5.80000 983.000
6.00000 869.000
6.20000 853.000
6.40000 836.000
6.60000 768.000
6.80000 712.000
7.00000 696.000
7.20000 713.000
7.40000 726.000
7.60000 761.000
7.80000 760.000
8.00000 642.000
8.20000 592.000
8.40000 619.000
8.60000 685.000
8.80000 606.000
9.00000 630.000
9.20000 626.000
9.40000 589.000
9.60000 536.000
9.80000 565.000
10.00000 698.000
10.20000 727.000
10.40000 582.000
10.60000 670.000
10.80000 607.000
11.00000 517.000
11.20000 475.000
11.40000 503.000
11.60000 539.000
11.80000 487.000
12.00000 475.000
12.20000 540.000
12.40000 606.000
12.60000 1033.000
12.80000 698.000
13.00000 469.000
13.20000 616.000
13.40000 732.000
13.60000 932.000
13.80000 1592.000
14.00000 3271.000
14.20000 936.000
14.40000 528.000
14.60000 471.000
14.80000 442.000
15.00000 434.000
15.20000 410.000
15.40000 431.000
15.60000 431.000
15.80000 456.000
16.00000 441.000
16.20000 439.000
16.40000 445.000
16.60000 431.000
16.80000 413.000
17.00000 458.000
17.20000 470.000
17.40000 488.000
17.60000 457.000
17.80000 462.000
18.00000 487.000
18.20000 507.000
18.40000 481.000
18.60000 510.000
18.80000 515.000
19.00000 556.000
19.20000 544.000
19.40000 575.000
19.60000 728.000
19.80000 1140.000
20.00000 1031.000
20.20000 668.000
20.40000 656.000
20.60000 644.000
20.80000 662.000
21.00000 697.000
21.20000 707.000
21.40000 665.000
21.60000 690.000
21.80000 702.000
22.00000 680.000
22.20000 739.000
22.40000 766.000
22.60000 711.000
22.80000 794.000
23.00000 796.000
23.20000 877.000
23.40000 781.000
23.60000 723.000
23.80000 708.000
24.00000 778.000
24.20000 954.000
24.40000 1667.000
24.60000 917.000
24.80000 862.000
25.00000 799.000
25.20000 790.000
25.40000 823.000
25.60000 859.000
25.80000 746.000
26.00000 787.000
26.20000 797.000
26.40000 775.000
26.60000 821.000
26.80000 785.000
27.00000 922.000
27.20000 873.000
27.40000 707.000
27.60000 748.000
27.80000 750.000
28.00000 948.000
28.20000 1771.000
28.40000 1373.000
28.60000 773.000
28.80000 688.000
29.00000 766.000
29.20000 749.000
29.40000 660.000
29.60000 674.000
29.80000 700.000
30.00000 609.000
30.20000 624.000
30.40000 663.000
30.60000 696.000
30.80000 669.000
31.00000 671.000
31.20000 688.000
31.40000 743.000
31.60000 1426.000
31.80000 1564.000
32.00000 668.000
32.20000 649.000
32.40000 585.000
32.60000 571.000
32.80000 596.000
33.00000 582.000
33.20000 554.000
33.40000 537.000
33.60000 561.000
33.80000 527.000
34.00000 472.000
34.20000 564.000
34.40000 502.000
34.60000 598.000
34.80000 1080.000
35.00000 662.000
35.20000 489.000
35.40000 490.000
35.60000 465.000
35.80000 411.000
36.00000 392.000
36.20000 463.000
36.40000 432.000
36.60000 431.000
36.80000 420.000
37.00000 406.000
37.20000 390.000
37.40000 406.000
37.60000 374.000
37.80000 375.000
38.00000 381.000
38.20000 412.000
38.40000 420.000
38.60000 441.000
38.80000 425.000
39.00000 358.000
39.20000 373.000
39.40000 380.000
39.60000 472.000
39.80000 397.000
40.00000 429.000
40.20000 598.000
40.40000 1858.000
40.60000 979.000
40.80000 466.000
41.00000 400.000
41.20000 441.000
41.40000 414.000
41.60000 416.000
41.80000 399.000
42.00000 363.000
42.20000 366.000
42.40000 360.000
42.60000 431.000
42.80000 524.000
43.00000 1078.000
43.20000 566.000
43.40000 392.000
43.60000 389.000
43.80000 364.000
44.00000 377.000
44.20000 329.000
44.40000 352.000
44.60000 386.000
44.80000 385.000
45.00000 353.000
45.20000 366.000
45.40000 368.000
45.60000 342.000
45.80000 333.000
46.00000 346.000
46.20000 373.000
46.40000 324.000
46.60000 354.000
46.80000 336.000
47.00000 331.000
47.20000 319.000
47.40000 354.000
47.60000 310.000
47.80000 391.000
48.00000 320.000
48.20000 312.000
48.40000 332.000
48.60000 300.000
48.80000 305.000
49.00000 316.000
49.20000 309.000
49.40000 370.000
49.60000 306.000
49.80000 321.000
50.00000 503.000
50.20000 479.000
50.40000 345.000
50.60000 266.000
50.80000 323.000
51.00000 299.000
51.20000 343.000
51.40000 311.000
51.60000 319.000
51.80000 301.000
52.00000 298.000
52.20000 436.000
52.40000 448.000
52.60000 326.000
52.80000 291.000
53.00000 337.000
53.20000 296.000
53.40000 338.000
53.60000 278.000
53.80000 300.000
54.00000 269.000
54.20000 316.000
54.40000 332.000
54.60000 336.000
54.80000 317.000
55.00000 305.000
55.20000 304.000
55.40000 312.000
55.60000 282.000
55.80000 295.000
56.00000 277.000
56.20000 294.000
56.40000 307.000
56.60000 314.000
56.80000 300.000
57.00000 295.000
57.20000 296.000
57.40000 336.000
57.60000 271.000
57.80000 304.000
58.00000 304.000
58.20000 303.000
58.40000 331.000
58.60000 347.000
58.80000 305.000
59.00000 294.000
59.20000 308.000
59.40000 319.000
59.60000 305.000
59.80000 321.000
59.92000 284.000

File: 13.xy
5.00000 1050.000
5.20000 1028.000
5.40000 1037.000
5.60000 930.000
5.80000 959.000
6.00000 941.000
6.20000 831.000
6.40000 826.000
6.60000 756.000
6.80000 768.000
7.00000 710.000
7.20000 774.000
7.40000 666.000
7.60000 688.000
7.80000 666.000
8.00000 615.000
8.20000 679.000
8.40000 665.000
8.60000 660.000
8.80000 643.000
9.00000 603.000
9.20000 614.000
9.40000 567.000
9.60000 587.000
9.80000 692.000
10.00000 1017.000
10.20000 977.000
10.40000 531.000
10.60000 547.000
10.80000 511.000
11.00000 493.000
11.20000 476.000
11.40000 524.000
11.60000 547.000
11.80000 503.000
12.00000 519.000
12.20000 455.000
12.40000 498.000
12.60000 541.000
12.80000 495.000
13.00000 536.000
13.20000 683.000
13.40000 989.000
13.60000 961.000
13.80000 1690.000
14.00000 4350.000
14.20000 1958.000
14.40000 580.000
14.60000 535.000
14.80000 496.000
15.00000 430.000
15.20000 458.000
15.40000 483.000
15.60000 436.000
15.80000 460.000
16.00000 447.000
16.20000 470.000
16.40000 454.000
16.60000 465.000
16.80000 474.000
17.00000 538.000
17.20000 499.000
17.40000 523.000
17.60000 514.000
17.80000 506.000
18.00000 552.000
18.20000 576.000
18.40000 499.000
18.60000 543.000
18.80000 589.000
19.00000 526.000
19.20000 551.000
19.40000 601.000
19.60000 673.000
19.80000 986.000
20.00000 1549.000
20.20000 688.000
20.40000 715.000
20.60000 683.000
20.80000 645.000
21.00000 675.000
21.20000 695.000
21.40000 645.000
21.60000 669.000
21.80000 722.000
22.00000 744.000
22.20000 820.000
22.40000 784.000
22.60000 738.000
22.80000 829.000
23.00000 904.000
23.20000 1076.000
23.40000 809.000
23.60000 741.000
23.80000 764.000
24.00000 819.000
24.20000 894.000
24.40000 1341.000
24.60000 1517.000
24.80000 781.000
25.00000 767.000
25.20000 821.000
25.40000 777.000
25.60000 783.000
25.80000 789.000
26.00000 821.000
26.20000 772.000
26.40000 794.000
26.60000 875.000
26.80000 1080.000
27.00000 1316.000
27.20000 1133.000
27.40000 799.000
27.60000 796.000
27.80000 818.000
28.00000 933.000
28.20000 1558.000
28.40000 3427.000
28.60000 1047.000
28.80000 768.000
29.00000 705.000
29.20000 721.000
29.40000 666.000
29.60000 687.000
29.80000 670.000
30.00000 663.000
30.20000 696.000
30.40000 740.000
30.60000 679.000
30.80000 651.000
31.00000 664.000
31.20000 667.000
31.40000 721.000
31.60000 939.000
31.80000 2155.000
32.00000 1125.000
32.20000 779.000
32.40000 579.000
32.60000 571.000
32.80000 581.000
33.00000 588.000
33.20000 573.000
33.40000 568.000
33.60000 536.000
33.80000 512.000
34.00000 515.000
34.20000 543.000
34.40000 536.000
34.60000 515.000
34.80000 651.000
35.00000 959.000
35.20000 503.000
35.40000 473.000
35.60000 434.000
35.80000 431.000
36.00000 391.000
36.20000 485.000
36.40000 424.000
36.60000 453.000
36.80000 451.000
37.00000 472.000
37.20000 479.000
37.40000 378.000
37.60000 365.000
37.80000 424.000
38.00000 366.000
38.20000 419.000
38.40000 510.000
38.60000 508.000
38.80000 392.000
39.00000 359.000
39.20000 363.000
39.40000 399.000
39.60000 378.000
39.80000 379.000
40.00000 386.000
40.20000 425.000
40.40000 705.000
40.60000 1745.000
40.80000 790.000
41.00000 395.000
41.20000 387.000
41.40000 416.000
41.60000 419.000
41.80000 382.000
42.00000 369.000
42.20000 391.000
42.40000 389.000
42.60000 380.000
42.80000 404.000
43.00000 563.000
43.20000 1226.000
43.40000 619.000
43.60000 369.000
43.80000 390.000
44.00000 412.000
44.20000 421.000
44.40000 392.000
44.60000 352.000
44.80000 384.000
45.00000 390.000
45.20000 433.000
45.40000 407.000
45.60000 430.000
45.80000 347.000
46.00000 317.000
46.20000 342.000
46.40000 322.000
46.60000 371.000
46.80000 332.000
47.00000 375.000
47.20000 346.000
47.40000 300.000
47.60000 331.000
47.80000 331.000
48.00000 355.000
48.20000 321.000
48.40000 318.000
48.60000 310.000
48.80000 331.000
49.00000 350.000
49.20000 314.000
49.40000 306.000
49.60000 346.000
49.80000 325.000
50.00000 355.000
50.20000 504.000
50.40000 568.000
50.60000 321.000
50.80000 354.000
51.00000 311.000
51.20000 326.000
51.40000 318.000
51.60000 307.000
51.80000 335.000
52.00000 307.000
52.20000 294.000
52.40000 380.000
52.60000 379.000
52.80000 330.000
53.00000 317.000
53.20000 330.000
53.40000 324.000
53.60000 323.000
53.80000 319.000
54.00000 341.000
54.20000 327.000
54.40000 345.000
54.60000 411.000
54.80000 344.000
55.00000 343.000
55.20000 315.000
55.40000 302.000
55.60000 316.000
55.80000 276.000
56.00000 300.000
56.20000 299.000
56.40000 277.000
56.60000 326.000
56.80000 290.000
57.00000 297.000
57.20000 328.000
57.40000 313.000
57.60000 325.000
57.80000 302.000
58.00000 317.000
58.20000 283.000
58.40000 300.000
58.60000 381.000
58.80000 330.000
59.00000 313.000
59.20000 301.000
59.40000 307.000
59.60000 276.000
59.80000 303.000
59.92000 329.000

File: 14.xy
5.00000 1031.000
5.20000 977.000
5.40000 954.000
5.60000 962.000
5.80000 997.000
6.00000 852.000
6.20000 853.000
6.40000 840.000
6.60000 906.000
6.80000 765.000
7.00000 717.000
7.20000 770.000
7.40000 743.000
7.60000 815.000
7.80000 903.000
8.00000 732.000
8.20000 681.000
8.40000 699.000
8.60000 722.000
8.80000 653.000
9.00000 633.000
9.20000 626.000
9.40000 573.000
9.60000 564.000
9.80000 610.000
10.00000 640.000
10.20000 859.000
10.40000 822.000
10.60000 1145.000
10.80000 860.000
11.00000 565.000
11.20000 727.000
11.40000 3086.000
11.60000 978.000
11.80000 595.000
12.00000 532.000
12.20000 630.000
12.40000 801.000
12.60000 1895.000
12.80000 2081.000
13.00000 722.000
13.20000 566.000
13.40000 702.000
13.60000 1084.000
13.80000 1520.000
14.00000 3377.000
14.20000 6273.000
14.40000 1136.000
14.60000 591.000
14.80000 538.000
15.00000 471.000
15.20000 479.000
15.40000 485.000
15.60000 456.000
15.80000 482.000
16.00000 492.000
16.20000 476.000
16.40000 418.000
16.60000 492.000
16.80000 473.000
17.00000 452.000
17.20000 462.000
17.40000 439.000
17.60000 551.000
17.80000 532.000
18.00000 494.000
18.20000 543.000
18.40000 530.000
18.60000 572.000
18.80000 548.000
19.00000 563.000
19.20000 572.000
19.40000 572.000
19.60000 621.000
19.80000 708.000
20.00000 1044.000
20.20000 985.000
20.40000 745.000
20.60000 719.000
20.80000 651.000
21.00000 703.000
21.20000 797.000
21.40000 930.000
21.60000 793.000
21.80000 758.000
22.00000 748.000
22.20000 780.000
22.40000 802.000
22.60000 818.000
22.80000 808.000
23.00000 830.000
23.20000 782.000
23.40000 927.000
23.60000 844.000
23.80000 798.000
24.00000 823.000
24.20000 947.000
24.40000 968.000
24.60000 1562.000
24.80000 1324.000
25.00000 1580.000
25.20000 1272.000
25.40000 921.000
25.60000 931.000
25.80000 831.000
26.00000 899.000
26.20000 896.000
26.40000 846.000
26.60000 956.000
26.80000 938.000
27.00000 827.000
27.20000 1064.000
27.40000 1001.000
27.60000 842.000
27.80000 757.000
28.00000 828.000
28.20000 958.000
28.40000 1798.000
28.60000 3443.000
28.80000 1012.000
29.00000 779.000
29.20000 783.000
29.40000 735.000
29.60000 714.000
29.80000 728.000
30.00000 739.000
30.20000 681.000
30.40000 701.000
30.60000 729.000
30.80000 644.000
31.00000 672.000
31.20000 666.000
31.40000 701.000
31.60000 627.000
31.80000 879.000
32.00000 2329.000
32.20000 1097.000
32.40000 658.000
32.60000 645.000
32.80000 608.000
33.00000 570.000
33.20000 583.000
33.40000 553.000
33.60000 530.000
33.80000 560.000
34.00000 528.000
34.20000 522.000
34.40000 618.000
34.60000 969.000
34.80000 1142.000
35.00000 674.000
35.20000 867.000
35.40000 557.000
35.60000 476.000
35.80000 487.000
36.00000 446.000
36.20000 456.000
36.40000 427.000
36.60000 421.000
36.80000 427.000
37.00000 405.000
37.20000 396.000
37.40000 406.000
37.60000 391.000
37.80000 437.000
38.00000 371.000
38.20000 406.000
38.40000 424.000
38.60000 552.000
38.80000 700.000
39.00000 507.000
39.20000 425.000
39.40000 394.000
39.60000 388.000
39.80000 398.000
40.00000 409.000
40.20000 382.000
40.40000 430.000
40.60000 459.000
40.80000 1105.000
41.00000 810.000
41.20000 490.000
41.40000 454.000
41.60000 417.000
41.80000 389.000
42.00000 405.000
42.20000 428.000
42.40000 409.000
42.60000 379.000
42.80000 398.000
43.00000 453.000
43.20000 468.000
43.40000 1096.000
43.60000 772.000
43.80000 449.000
44.00000 402.000
44.20000 402.000
44.40000 392.000
44.60000 370.000
44.80000 387.000
45.00000 381.000
45.20000 382.000
45.40000 382.000
45.60000 404.000
45.80000 400.000
46.00000 395.000
46.20000 367.000
46.40000 376.000
46.60000 478.000
46.80000 892.000
47.00000 827.000
47.20000 455.000
47.40000 375.000
47.60000 362.000
47.80000 314.000
48.00000 381.000
48.20000 377.000
48.40000 346.000
48.60000 337.000
48.80000 348.000
49.00000 338.000
49.20000 323.000
49.40000 337.000
49.60000 352.000
49.80000 323.000
50.00000 350.000
50.20000 359.000
50.40000 392.000
50.60000 726.000
50.80000 519.000
51.00000 333.000
51.20000 318.000
51.40000 321.000
51.60000 322.000
51.80000 308.000
52.00000 332.000
52.20000 393.000
52.40000 493.000
52.60000 554.000
52.80000 474.000
53.00000 437.000
53.20000 320.000
53.40000 295.000
53.60000 319.000
53.80000 308.000
54.00000 291.000
54.20000 286.000
54.40000 286.000
54.60000 329.000
54.80000 346.000
55.00000 327.000
55.20000 363.000
55.40000 336.000
55.60000 295.000
55.80000 287.000
56.00000 298.000
56.20000 281.000
56.40000 288.000
56.60000 327.000
56.80000 322.000
57.00000 299.000
57.20000 296.000
57.40000 327.000
57.60000 311.000
57.80000 289.000
58.00000 310.000
58.20000 308.000
58.40000 326.000
58.60000 353.000
58.80000 326.000
59.00000 323.000
59.20000 363.000
59.40000 311.000
59.60000 326.000
59.80000 307.000
59.92000 320.000

File: 15.xy
5.00000 966.000
5.20000 1029.000
5.40000 938.000
5.60000 958.000
5.80000 947.000
6.00000 906.000
6.20000 835.000
6.40000 809.000
6.60000 861.000
6.80000 755.000
7.00000 727.000
7.20000 846.000
7.40000 1173.000
7.60000 756.000
7.80000 678.000
8.00000 652.000
8.20000 654.000
8.40000 613.000
8.60000 675.000
8.80000 634.000
9.00000 650.000
9.20000 577.000
9.40000 625.000
9.60000 569.000
9.80000 585.000
10.00000 645.000
10.20000 802.000
10.40000 634.000
10.60000 684.000
10.80000 608.000
11.00000 560.000
11.20000 575.000
11.40000 576.000
11.60000 568.000
11.80000 594.000
12.00000 615.000
12.20000 775.000
12.40000 1336.000
12.60000 6293.000
12.80000 9403.000
13.00000 1577.000
13.20000 825.000
13.40000 834.000
13.60000 1021.000
13.80000 797.000
14.00000 1412.000
14.20000 3084.000
14.40000 1083.000
14.60000 543.000
14.80000 488.000
15.00000 454.000
15.20000 487.000
15.40000 494.000
15.60000 494.000
15.80000 438.000
16.00000 436.000
16.20000 478.000
16.40000 462.000
16.60000 478.000
16.80000 456.000
17.00000 475.000
17.20000 451.000
17.40000 505.000
17.60000 515.000
17.80000 516.000
18.00000 568.000
18.20000 558.000
18.40000 549.000
18.60000 572.000
18.80000 579.000
19.00000 589.000
19.20000 538.000
19.40000 614.000
19.60000 653.000
19.80000 710.000
20.00000 990.000
20.20000 2326.000
20.40000 908.000
20.60000 725.000
20.80000 698.000
21.00000 717.000
21.20000 727.000
21.40000 787.000
21.60000 748.000
21.80000 682.000
22.00000 711.000
22.20000 763.000
22.40000 800.000
22.60000 784.000
22.80000 731.000
23.00000 789.000
23.20000 837.000
23.40000 1082.000
23.60000 1043.000
23.80000 768.000
24.00000 747.000
24.20000 796.000
24.40000 848.000
24.60000 926.000
24.80000 1432.000
25.00000 1032.000
25.20000 898.000
25.40000 961.000
25.60000 1185.000
25.80000 885.000
26.00000 808.000
26.20000 767.000
26.40000 762.000
26.60000 755.000
26.80000 787.000
27.00000 870.000
27.20000 1032.000
27.40000 959.000
27.60000 802.000
27.80000 794.000
28.00000 757.000
28.20000 769.000
28.40000 831.000
28.60000 1296.000
28.80000 1794.000
29.00000 833.000
29.20000 725.000
29.40000 738.000
29.60000 764.000
29.80000 689.000
30.00000 692.000
30.20000 687.000
30.40000 679.000
30.60000 705.000
30.80000 675.000
31.00000 683.000
31.20000 692.000
31.40000 708.000
31.60000 689.000
31.80000 698.000
32.00000 988.000
32.20000 2415.000
32.40000 1271.000
32.60000 700.000
32.80000 591.000
33.00000 593.000
33.20000 616.000
33.40000 566.000
33.60000 578.000
33.80000 542.000
34.00000 559.000
34.20000 567.000
34.40000 532.000
34.60000 499.000
34.80000 527.000
35.00000 472.000
35.20000 563.000
35.40000 887.000
35.60000 581.000
35.80000 468.000
36.00000 464.000
36.20000 476.000
36.40000 433.000
36.60000 435.000
36.80000 456.000
37.00000 467.000
37.20000 432.000
37.40000 528.000
37.60000 450.000
37.80000 396.000
38.00000 452.000
38.20000 481.000
38.40000 563.000
38.60000 1284.000
38.80000 2354.000
39.00000 1264.000
39.20000 590.000
39.40000 518.000
39.60000 442.000
39.80000 428.000
40.00000 385.000
40.20000 390.000
40.40000 423.000
40.60000 427.000
40.80000 479.000
41.00000 1233.000
41.20000 1689.000
41.40000 581.000
41.60000 432.000
41.80000 476.000
42.00000 426.000
42.20000 438.000
42.40000 401.000
42.60000 377.000
42.80000 387.000
43.00000 399.000
43.20000 406.000
43.40000 457.000
43.60000 771.000
43.80000 1183.000
44.00000 500.000
44.20000 449.000
44.40000 381.000
44.60000 398.000
44.80000 394.000
45.00000 382.000
45.20000 374.000
45.40000 381.000
45.60000 415.000
45.80000 401.000
46.00000 365.000
46.20000 383.000
46.40000 356.000
46.60000 379.000
46.80000 329.000
47.00000 344.000
47.20000 320.000
47.40000 324.000
47.60000 305.000
47.80000 320.000
48.00000 324.000
48.20000 326.000
48.40000 327.000
48.60000 323.000
48.80000 348.000
49.00000 276.000
49.20000 289.000
49.40000 301.000
49.60000 329.000
49.80000 339.000
50.00000 331.000
50.20000 348.000
50.40000 312.000
50.60000 318.000
50.80000 398.000
51.00000 581.000
51.20000 379.000
51.40000 373.000
51.60000 339.000
51.80000 340.000
52.00000 381.000
52.20000 644.000
52.40000 1306.000
52.60000 1736.000
52.80000 1012.000
53.00000 501.000
53.20000 509.000
53.40000 463.000
53.60000 386.000
53.80000 333.000
54.00000 304.000
54.20000 331.000
54.40000 315.000
54.60000 324.000
54.80000 333.000
55.00000 339.000
55.20000 382.000
55.40000 393.000
55.60000 346.000
55.80000 328.000
56.00000 314.000
56.20000 324.000
56.40000 321.000
56.60000 324.000
56.80000 317.000
57.00000 320.000
57.20000 304.000
57.40000 317.000
57.60000 287.000
57.80000 325.000
58.00000 300.000
58.20000 331.000
58.40000 295.000
58.60000 311.000
58.80000 330.000
59.00000 311.000
59.20000 295.000
59.40000 305.000
59.60000 305.000
59.80000 308.000
59.92000 288.000