Folder: campaign1/XRD (part 2)

File: 6.xy
5.00000 586.000
5.20000 516.000
5.40000 551.000
5.60000 562.000
5.80000 521.000
6.00000 494.000
6.20000 423.000
6.40000 446.000
6.60000 437.000
6.80000 438.000
7.00000 481.000
7.20000 401.000
7.40000 412.000
7.60000 400.000
7.80000 337.000
8.00000 336.000
8.20000 368.000
8.40000 347.000
8.60000 334.000
8.80000 329.000
9.00000 328.000
9.20000 302.000
9.40000 313.000
9.60000 313.000
9.80000 306.000
10.00000 282.000
10.20000 280.000
10.40000 291.000
10.60000 271.000
10.80000 261.000
11.00000 266.000
11.20000 261.000
11.40000 282.000
11.60000 259.000
11.80000 252.000
12.00000 238.000
12.20000 263.000
12.40000 240.000
12.60000 242.000
12.80000 258.000
13.00000 245.000
13.20000 308.000
13.40000 333.000
13.60000 471.000
13.80000 735.000
14.00000 1436.000
14.20000 3632.000
14.40000 5861.000
14.60000 624.000
14.80000 273.000
15.00000 249.000
15.20000 220.000
15.40000 203.000
15.60000 199.000
15.80000 188.000
16.00000 195.000
16.20000 183.000
16.40000 202.000
16.60000 192.000
16.80000 194.000
17.00000 192.000
17.20000 190.000
17.40000 181.000
17.60000 171.000
17.80000 193.000
18.00000 207.000
18.20000 211.000
18.40000 203.000
18.60000 228.000
18.80000 197.000
19.00000 220.000
19.20000 215.000
19.40000 234.000
19.60000 218.000
19.80000 271.000
20.00000 328.000
20.20000 754.000
20.40000 2119.000
20.60000 412.000
20.80000 254.000
21.00000 198.000
21.20000 226.000
21.40000 212.000
21.60000 198.000
21.80000 202.000
22.00000 198.000
22.20000 210.000
22.40000 234.000
22.60000 190.000
22.80000 212.000
23.00000 200.000
23.20000 203.000
23.40000 213.000
23.60000 200.000
23.80000 209.000
24.00000 226.000
24.20000 202.000
24.40000 191.000
24.60000 224.000
24.80000 275.000
25.00000 579.000
25.20000 313.000
25.40000 208.000
25.60000 216.000
25.80000 214.000
26.00000 186.000
26.20000 190.000
26.40000 191.000
26.60000 180.000
26.80000 202.000
27.00000 185.000
27.20000 180.000
27.40000 186.000
27.60000 207.000
27.80000 247.000
28.00000 194.000
28.20000 224.000
28.40000 255.000
28.60000 345.000
28.80000 1174.000
29.00000 3798.000
29.20000 829.000
29.40000 253.000
29.60000 186.000
29.80000 182.000
30.00000 175.000
30.20000 149.000
30.40000 155.000
30.60000 164.000
30.80000 144.000
31.00000 165.000
31.20000 203.000
31.40000 189.000
31.60000 156.000
31.80000 185.000
32.00000 220.000
32.20000 426.000
32.40000 1841.000
32.60000 2758.000
32.80000 380.000
33.00000 206.000
33.20000 165.000
33.40000 134.000
33.60000 139.000
33.80000 137.000
34.00000 126.000
34.20000 122.000
34.40000 119.000
34.60000 144.000
34.80000 117.000
35.00000 106.000
35.20000 119.000
35.40000 168.000
35.60000 346.000
35.80000 590.000
36.00000 167.000
36.20000 119.000
36.40000 119.000
36.60000 114.000
36.80000 108.000
37.00000 107.000
37.20000 82.000
37.40000 103.000
37.60000 95.000
37.80000 89.000
38.00000 90.000
38.20000 103.000
38.40000 111.000
38.60000 103.000
38.80000 80.000
39.00000 101.000
39.20000 93.000
39.40000 110.000
39.60000 91.000
39.80000 104.000
40.00000 100.000
40.20000 114.000
40.40000 97.000
40.60000 102.000
40.80000 124.000
41.00000 139.000
41.20000 214.000
41.40000 747.000
41.60000 1017.000
41.80000 222.000
42.00000 125.000
42.20000 108.000
42.40000 108.000
42.60000 115.000
42.80000 104.000
43.00000 109.000
43.20000 99.000
43.40000 111.000
43.60000 122.000
43.80000 146.000
44.00000 404.000
44.20000 941.000
44.40000 277.000
44.60000 124.000
44.80000 89.000
45.00000 121.000
45.20000 98.000
45.40000 100.000
45.60000 76.000
45.80000 81.000
46.00000 76.000
46.20000 79.000
46.40000 80.000
46.60000 137.000
46.80000 138.000
47.00000 77.000
47.20000 87.000
47.40000 76.000
47.60000 81.000
47.80000 84.000
48.00000 53.000
48.20000 70.000
48.40000 64.000
48.60000 76.000
48.80000 65.000
49.00000 68.000
49.20000 94.000
49.40000 71.000
49.60000 67.000
49.80000 71.000
50.00000 79.000
50.20000 66.000
50.40000 66.000
50.60000 79.000
50.80000 79.000
51.00000 90.000
51.20000 105.000
51.40000 310.000
51.60000 239.000
51.80000 117.000
52.00000 79.000
52.20000 64.000
52.40000 79.000
52.60000 69.000
52.80000 81.000
53.00000 64.000
53.20000 80.000
53.40000 71.000
53.60000 155.000
53.80000 220.000
54.00000 106.000
54.20000 67.000
54.40000 91.000
54.60000 70.000
54.80000 63.000
55.00000 78.000
55.20000 72.000
55.40000 67.000
55.60000 83.000
55.80000 110.000
56.00000 127.000
56.20000 76.000
56.40000 66.000
56.60000 58.000
56.80000 69.000
57.00000 47.000
57.20000 56.000
57.40000 55.000
57.60000 71.000
57.80000 73.000
58.00000 60.000
58.20000 54.000
58.40000 73.000
58.60000 54.000
58.80000 84.000
59.00000 56.000
59.20000 51.000
59.40000 66.000
59.60000 60.000
59.80000 76.000
59.92000 68.000

File: 7.xy
5.00000 628.000
5.20000 603.000
5.40000 557.000
5.60000 564.000
5.80000 524.000
6.00000 456.000
6.20000 472.000
6.40000 507.000
6.60000 433.000
6.80000 441.000
7.00000 425.000
7.20000 465.000
7.40000 415.000
7.60000 393.000
7.80000 365.000
8.00000 409.000
8.20000 367.000
8.40000 362.000
8.60000 383.000
8.80000 361.000
9.00000 288.000
9.20000 343.000
9.40000 321.000
9.60000 297.000
9.80000 300.000
10.00000 288.000
10.20000 301.000
10.40000 303.000
10.60000 316.000
10.80000 311.000
11.00000 262.000
11.20000 278.000
11.40000 245.000
11.60000 278.000
11.80000 309.000
12.00000 283.000
12.20000 254.000
12.40000 263.000
12.60000 277.000
12.80000 306.000
13.00000 377.000
13.20000 355.000
13.40000 417.000
13.60000 588.000
13.80000 1235.000
14.00000 1921.000
14.20000 5597.000
14.40000 23850.000
14.60000 10326.000
14.80000 1051.000
15.00000 486.000
15.20000 370.000
15.40000 325.000
15.60000 259.000
15.80000 248.000
16.00000 243.000
16.20000 218.000
16.40000 221.000
16.60000 210.000
16.80000 207.000
17.00000 213.000
17.20000 200.000
17.40000 192.000
17.60000 207.000
17.80000 200.000
18.00000 220.000
18.20000 228.000
18.40000 210.000
18.60000 210.000
18.80000 234.000
19.00000 212.000
19.20000 214.000
19.40000 220.000
19.60000 218.000
19.80000 214.000
20.00000 239.000
20.20000 274.000
20.40000 531.000
20.60000 813.000
20.80000 288.000
21.00000 244.000
21.20000 202.000
21.40000 209.000
21.60000 208.000
21.80000 197.000
22.00000 251.000
22.20000 227.000
22.40000 240.000
22.60000 223.000
22.80000 228.000
23.00000 236.000
23.20000 247.000
23.40000 251.000
23.60000 222.000
23.80000 212.000
24.00000 232.000
24.20000 228.000
24.40000 246.000
24.60000 219.000
24.80000 225.000
25.00000 260.000
25.20000 422.000
25.40000 268.000
25.60000 194.000
25.80000 207.000
26.00000 186.000
26.20000 220.000
26.40000 241.000
26.60000 222.000
26.80000 202.000
27.00000 190.000
27.20000 229.000
27.40000 193.000
27.60000 233.000
27.80000 248.000
28.00000 270.000
28.20000 255.000
28.40000 235.000
28.60000 293.000
28.80000 438.000
29.00000 1690.000
29.20000 6973.000
29.40000 1818.000
29.60000 381.000
29.80000 236.000
30.00000 187.000
30.20000 197.000
30.40000 180.000
30.60000 190.000
30.80000 167.000
31.00000 171.000
31.20000 202.000
31.40000 198.000
31.60000 174.000
31.80000 191.000
32.00000 186.000
32.20000 214.000
32.40000 327.000
32.60000 1199.000
32.80000 2966.000
33.00000 583.000
33.20000 224.000
33.40000 161.000
33.60000 162.000
33.80000 123.000
34.00000 118.000
34.20000 107.000
34.40000 103.000
34.60000 124.000
34.80000 111.000
35.00000 104.000
35.20000 117.000
35.40000 106.000
35.60000 112.000
35.80000 176.000
36.00000 469.000
36.20000 238.000
36.40000 109.000
36.60000 75.000
36.80000 89.000
37.00000 93.000
37.20000 87.000
37.40000 94.000
37.60000 83.000
37.80000 90.000
38.00000 75.000
38.20000 85.000
38.40000 89.000
38.60000 81.000
38.80000 69.000
39.00000 87.000
39.20000 83.000
39.40000 91.000
39.60000 78.000
39.80000 105.000
40.00000 96.000
40.20000 76.000
40.40000 90.000
40.60000 81.000
40.80000 80.000
41.00000 86.000
41.20000 96.000
41.40000 94.000
41.60000 210.000
41.80000 740.000
42.00000 410.000
42.20000 130.000
42.40000 99.000
42.60000 90.000
42.80000 108.000
43.00000 78.000
43.20000 97.000
43.40000 99.000
43.60000 83.000
43.80000 89.000
44.00000 97.000
44.20000 135.000
44.40000 396.000
44.60000 497.000
44.80000 175.000
45.00000 93.000
45.20000 84.000
45.40000 81.000
45.60000 88.000
45.80000 80.000
46.00000 83.000
46.20000 77.000
46.40000 64.000
46.60000 71.000
46.80000 78.000
47.00000 136.000
47.20000 118.000
47.40000 102.000
47.60000 73.000
47.80000 69.000
48.00000 62.000
48.20000 67.000
48.40000 66.000
48.60000 62.000
48.80000 70.000
49.00000 60.000
49.20000 82.000
49.40000 56.000
49.60000 64.000
49.80000 59.000
50.00000 53.000
50.20000 53.000
50.40000 50.000
50.60000 61.000
50.80000 68.000
51.00000 73.000
51.20000 62.000
51.40000 56.000
51.60000 91.000
51.80000 172.000
52.00000 143.000
52.20000 77.000
52.40000 70.000
52.60000 67.000
52.80000 65.000
53.00000 63.000
53.20000 62.000
53.40000 61.000
53.60000 53.000
53.80000 77.000
54.00000 125.000
54.20000 231.000
54.40000 107.000
54.60000 75.000
54.80000 60.000
55.00000 73.000
55.20000 72.000
55.40000 51.000
55.60000 66.000
55.80000 50.000
56.00000 58.000
56.20000 91.000
56.40000 123.000
56.60000 98.000
56.80000 65.000
57.00000 65.000
57.20000 61.000
57.40000 52.000
57.60000 51.000
57.80000 45.000
58.00000 58.000
58.20000 51.000
58.40000 59.000
58.60000 56.000
58.80000 50.000
59.00000 53.000
59.20000 60.000
59.40000 61.000
59.60000 59.000
59.80000 60.000
59.92000 55.000

File: 8.xy
5.00000 676.000
5.20000 650.000
5.40000 622.000
5.60000 564.000
5.80000 555.000
6.00000 542.000
6.20000 479.000
6.40000 498.000
6.60000 491.000
6.80000 471.000
7.00000 444.000
7.20000 479.000
7.40000 429.000
7.60000 432.000
7.80000 417.000
8.00000 382.000
8.20000 365.000
8.40000 349.000
8.60000 382.000
8.80000 379.000
9.00000 362.000
9.20000 351.000
9.40000 335.000
9.60000 355.000
9.80000 319.000
10.00000 293.000
10.20000 325.000
10.40000 323.000
10.60000 329.000
10.80000 369.000
11.00000 316.000
11.20000 326.000
11.40000 301.000
11.60000 308.000
11.80000 312.000
12.00000 312.000
12.20000 304.000
12.40000 331.000
12.60000 387.000
12.80000 355.000
13.00000 397.000
13.20000 463.000
13.40000 454.000
13.60000 528.000
13.80000 746.000
14.00000 1201.000
14.20000 1897.000
14.40000 5915.000
14.60000 26092.000
14.80000 3408.000
15.00000 1079.000
15.20000 654.000
15.40000 429.000
15.60000 448.000
15.80000 358.000
16.00000 288.000
16.20000 309.000
16.40000 287.000
16.60000 258.000
16.80000 274.000
17.00000 258.000
17.20000 252.000
17.40000 237.000
17.60000 248.000
17.80000 237.000
18.00000 259.000
18.20000 282.000
18.40000 237.000
18.60000 251.000
18.80000 266.000
19.00000 202.000
19.20000 246.000
19.40000 220.000
19.60000 255.000
19.80000 227.000
20.00000 261.000
20.20000 265.000
20.40000 290.000
20.60000 403.000
20.80000 387.000
21.00000 265.000
21.20000 264.000
21.40000 294.000
21.60000 241.000
21.80000 258.000
22.00000 252.000
22.20000 225.000
22.40000 243.000
22.60000 259.000
22.80000 263.000
23.00000 265.000
23.20000 269.000
23.40000 227.000
23.60000 263.000
23.80000 250.000
24.00000 248.000
24.20000 236.000
24.40000 239.000
24.60000 259.000
24.80000 253.000
25.00000 230.000
25.20000 222.000
25.40000 260.000
25.60000 238.000
25.80000 239.000
26.00000 212.000
26.20000 193.000
26.40000 213.000
26.60000 250.000
26.80000 231.000
27.00000 219.000
27.20000 221.000
27.40000 217.000
27.60000 226.000
27.80000 225.000
28.00000 247.000
28.20000 262.000
28.40000 227.000
28.60000 252.000
28.80000 248.000
29.00000 346.000
29.20000 691.000
29.40000 2487.000
29.60000 1254.000
29.80000 293.000
30.00000 252.000
30.20000 227.000
30.40000 202.000
30.60000 206.000
30.80000 203.000
31.00000 226.000
31.20000 173.000
31.40000 185.000
31.60000 181.000
31.80000 175.000
32.00000 146.000
32.20000 189.000
32.40000 171.000
32.60000 186.000
32.80000 381.000
33.00000 1102.000
33.20000 566.000
33.40000 194.000
33.60000 155.000
33.80000 146.000
34.00000 108.000
34.20000 122.000
34.40000 97.000
34.60000 137.000
34.80000 124.000
35.00000 114.000
35.20000 116.000
35.40000 94.000
35.60000 98.000
35.80000 98.000
36.00000 131.000
36.20000 202.000
36.40000 206.000
36.60000 97.000
36.80000 96.000
37.00000 77.000
37.20000 98.000
37.40000 76.000
37.60000 83.000
37.80000 94.000
38.00000 77.000
38.20000 80.000
38.40000 104.000
38.60000 99.000
38.80000 82.000
39.00000 77.000
39.20000 75.000
39.40000 78.000
39.60000 85.000
39.80000 79.000
40.00000 93.000
40.20000 84.000
40.40000 104.000
40.60000 74.000
40.80000 76.000
41.00000 68.000
41.20000 103.000
41.40000 84.000
41.60000 93.000
41.80000 106.000
42.00000 168.000
42.20000 375.000
42.40000 161.000
42.60000 94.000
42.80000 81.000
43.00000 74.000
43.20000 62.000
43.40000 73.000
43.60000 85.000
43.80000 71.000
44.00000 73.000
44.20000 86.000
44.40000 86.000
44.60000 107.000
44.80000 195.000
45.00000 173.000
45.20000 94.000
45.40000 90.000
45.60000 72.000
45.80000 75.000
46.00000 65.000
46.20000 80.000
46.40000 70.000
46.60000 61.000
46.80000 81.000
47.00000 90.000
47.20000 82.000
47.40000 168.000
47.60000 133.000
47.80000 77.000
48.00000 78.000
48.20000 83.000
48.40000 69.000
48.60000 57.000
48.80000 69.000
49.00000 75.000
49.20000 70.000
49.40000 70.000
49.60000 60.000
49.80000 54.000
50.00000 79.000
50.20000 72.000
50.40000 59.000
50.60000 74.000
50.80000 73.000
51.00000 65.000
51.20000 68.000
51.40000 65.000
51.60000 80.000
51.80000 79.000
52.00000 78.000
52.20000 101.000
52.40000 102.000
52.60000 61.000
52.80000 71.000
53.00000 59.000
53.20000 84.000
53.40000 69.000
53.60000 69.000
53.80000 58.000
54.00000 71.000
54.20000 49.000
54.40000 88.000
54.60000 146.000
54.80000 103.000
55.00000 77.000
55.20000 55.000
55.40000 59.000
55.60000 62.000
55.80000 48.000
56.00000 68.000
56.20000 59.000
56.40000 65.000
56.60000 70.000
56.80000 87.000
57.00000 82.000
57.20000 71.000
57.40000 49.000
57.60000 59.000
57.80000 62.000
58.00000 58.000
58.20000 60.000
58.40000 50.000
58.60000 61.000
58.80000 59.000
59.00000 59.000
59.20000 60.000
59.40000 63.000
59.60000 59.000
59.80000 53.000
59.92000 67.000

File: 9.xy
5.00000 671.000
5.20000 649.000
5.40000 615.000
5.60000 686.000
5.80000 584.000
6.00000 568.000
6.20000 515.000
6.40000 488.000
6.60000 471.000
6.80000 490.000
7.00000 435.000
7.20000 461.000
7.40000 454.000
7.60000 384.000
7.80000 415.000
8.00000 434.000
8.20000 389.000
8.40000 397.000
8.60000 369.000
8.80000 347.000
9.00000 348.000
9.20000 327.000
9.40000 326.000
9.60000 328.000
9.80000 327.000
10.00000 313.000
10.20000 308.000
10.40000 300.000
10.60000 337.000
10.80000 287.000
11.00000 305.000
11.20000 297.000
11.40000 334.000
11.60000 316.000
11.80000 312.000
12.00000 328.000
12.20000 316.000
12.40000 333.000
12.60000 348.000
12.80000 387.000
13.00000 406.000
13.20000 438.000
13.40000 435.000
13.60000 451.000
13.80000 576.000
14.00000 867.000
14.20000 1046.000
14.40000 2252.000
14.60000 9700.000
14.80000 5387.000
15.00000 1159.000
15.20000 651.000
15.40000 517.000
15.60000 390.000
15.80000 366.000
16.00000 311.000
16.20000 299.000
16.40000 304.000
16.60000 262.000
16.80000 262.000
17.00000 262.000
17.20000 255.000
17.40000 239.000
17.60000 241.000
17.80000 231.000
18.00000 229.000
18.20000 229.000
18.40000 231.000
18.60000 235.000
18.80000 242.000
19.00000 247.000
19.20000 233.000
19.40000 224.000
19.60000 252.000
19.80000 270.000
20.00000 258.000
20.20000 252.000
20.40000 259.000
20.60000 328.000
20.80000 484.000
21.00000 298.000
21.20000 263.000
21.40000 259.000
21.60000 232.000
21.80000 266.000
22.00000 291.000
22.20000 250.000
22.40000 278.000
22.60000 261.000
22.80000 253.000
23.00000 230.000
23.20000 267.000
23.40000 247.000
23.60000 239.000
23.80000 246.000
24.00000 258.000
24.20000 235.000
24.40000 250.000
24.60000 222.000
24.80000 240.000
25.00000 247.000
25.20000 254.000
25.40000 247.000
25.60000 253.000
25.80000 252.000
26.00000 228.000
26.20000 246.000
26.40000 232.000
26.60000 244.000
26.80000 247.000
27.00000 231.000
27.20000 221.000
27.40000 241.000
27.60000 237.000
27.80000 233.000
28.00000 228.000
28.20000 224.000
28.40000 215.000
28.60000 227.000
28.80000 222.000
29.00000 253.000
29.20000 294.000
29.40000 544.000
29.60000 1484.000
29.80000 503.000
30.00000 268.000
30.20000 236.000
30.40000 205.000
30.60000 218.000
30.80000 213.000
31.00000 204.000
31.20000 197.000
31.40000 197.000
31.60000 175.000
31.80000 172.000
32.00000 170.000
32.20000 149.000
32.40000 166.000
32.60000 164.000
32.80000 210.000
33.00000 301.000
33.20000 712.000
33.40000 273.000
33.60000 147.000
33.80000 149.000
34.00000 144.000
34.20000 137.000
34.40000 112.000
34.60000 116.000
34.80000 117.000
35.00000 124.000
35.20000 103.000
35.40000 120.000
35.60000 107.000
35.80000 107.000
36.00000 114.000
36.20000 128.000
36.40000 198.000
36.60000 204.000
36.80000 100.000
37.00000 98.000
37.20000 89.000
37.40000 79.000
37.60000 85.000
37.80000 68.000
38.00000 108.000
38.20000 74.000
38.40000 86.000
38.60000 86.000
38.80000 81.000
39.00000 88.000
39.20000 81.000
39.40000 84.000
39.60000 90.000
39.80000 72.000
40.00000 82.000
40.20000 77.000
40.40000 77.000
40.60000 77.000
40.80000 73.000
41.00000 72.000
41.20000 85.000
41.40000 82.000
41.60000 88.000
41.80000 74.000
42.00000 94.000
42.20000 147.000
42.40000 308.000
42.60000 158.000
42.80000 78.000
43.00000 68.000
43.20000 84.000
43.40000 80.000
43.60000 70.000
43.80000 74.000
44.00000 68.000
44.20000 60.000
44.40000 69.000
44.60000 101.000
44.80000 100.000
45.00000 129.000
45.20000 158.000
45.40000 102.000
45.60000 63.000
45.80000 78.000
46.00000 74.000
46.20000 94.000
46.40000 87.000
46.60000 59.000
46.80000 70.000
47.00000 83.000
47.20000 94.000
47.40000 96.000
47.60000 113.000
47.80000 124.000
48.00000 101.000
48.20000 77.000
48.40000 71.000
48.60000 65.000
48.80000 81.000
49.00000 75.000
49.20000 70.000
49.40000 70.000
49.60000 60.000
49.80000 72.000
50.00000 82.000
50.20000 86.000
50.40000 80.000
50.60000 72.000
50.80000 66.000
51.00000 73.000
51.20000 64.000
51.40000 68.000
51.60000 63.000
51.80000 60.000
52.00000 65.000
52.20000 70.000
52.40000 71.000
52.60000 91.000
52.80000 63.000
53.00000 84.000
53.20000 74.000
53.40000 66.000
53.60000 69.000
53.80000 50.000
54.00000 50.000
54.20000 61.000
54.40000 70.000
54.60000 65.000
54.80000 73.000
55.00000 110.000
55.20000 86.000
55.40000 69.000
55.60000 53.000
55.80000 53.000
56.00000 73.000
56.20000 68.000
56.40000 64.000
56.60000 54.000
56.80000 69.000
57.00000 68.000
57.20000 90.000
57.40000 74.000
57.60000 56.000
57.80000 72.000
58.00000 78.000
58.20000 44.000
58.40000 53.000
58.60000 74.000
58.80000 52.000
59.00000 55.000
59.20000 69.000
59.40000 60.000
59.60000 52.000
59.80000 61.000
59.92000 48.000

File: 10.xy
5.00000 672.000
5.20000 638.000
5.40000 627.000
5.60000 569.000
5.80000 635.000
6.00000 535.000
6.20000 494.000
6.40000 529.000
6.60000 529.000
6.80000 493.000
7.00000 450.000
7.20000 444.000
7.40000 429.000
7.60000 401.000
7.80000 415.000
8.00000 406.000
8.20000 381.000
8.40000 393.000
8.60000 342.000
8.80000 337.000
9.00000 326.000
9.20000 334.000
9.40000 328.000
9.60000 316.000
9.80000 282.000
10.00000 316.000
10.20000 310.000
10.40000 310.000
10.60000 307.000
10.80000 273.000
11.00000 306.000
11.20000 291.000
11.40000 271.000
11.60000 309.000
11.80000 266.000
12.00000 307.000
12.20000 323.000
12.40000 302.000
12.60000 324.000
12.80000 289.000
13.00000 341.000
13.20000 362.000
13.40000 347.000
13.60000 356.000
13.80000 415.000
14.00000 434.000
14.20000 548.000
14.40000 681.000
14.60000 1469.000
14.80000 5489.000
15.00000 1298.000
15.20000 639.000
15.40000 458.000
15.60000 380.000
15.80000 310.000
16.00000 294.000
16.20000 328.000
16.40000 227.000
16.60000 271.000
16.80000 249.000
17.00000 247.000
17.20000 228.000
17.40000 229.000
17.60000 246.000
17.80000 236.000
18.00000 218.000
18.20000 264.000
18.40000 227.000
18.60000 231.000
18.80000 234.000
19.00000 251.000
19.20000 248.000
19.40000 242.000
19.60000 238.000
19.80000 232.000
20.00000 224.000
20.20000 252.000
20.40000 238.000
20.60000 263.000
20.80000 296.000
21.00000 460.000
21.20000 254.000
21.40000 245.000
21.60000 221.000
21.80000 228.000
22.00000 259.000
22.20000 262.000
22.40000 272.000
22.60000 205.000
22.80000 240.000
23.00000 246.000
23.20000 264.000
23.40000 229.000
23.60000 246.000
23.80000 229.000
24.00000 255.000
24.20000 236.000
24.40000 256.000
24.60000 236.000
24.80000 230.000
25.00000 235.000
25.20000 207.000
25.40000 226.000
25.60000 228.000
25.80000 240.000
26.00000 227.000
26.20000 203.000
26.40000 231.000
26.60000 223.000
26.80000 233.000
27.00000 198.000
27.20000 215.000
27.40000 214.000
27.60000 238.000
27.80000 231.000
28.00000 207.000
28.20000 204.000
28.40000 215.000
28.60000 214.000
28.80000 230.000
29.00000 182.000
29.20000 209.000
29.40000 212.000
29.60000 244.000
29.80000 442.000
30.00000 391.000
30.20000 208.000
30.40000 229.000
30.60000 229.000
30.80000 224.000
31.00000 212.000
31.20000 245.000
31.40000 209.000
31.60000 181.000
31.80000 190.000
32.00000 163.000
32.20000 173.000
32.40000 151.000
32.60000 162.000
32.80000 173.000
33.00000 142.000
33.20000 170.000
33.40000 254.000
33.60000 280.000
33.80000 165.000
34.00000 135.000
34.20000 128.000
34.40000 122.000
34.60000 133.000
34.80000 113.000
35.00000 128.000
35.20000 115.000
35.40000 102.000
35.60000 130.000
35.80000 103.000
36.00000 120.000
36.20000 117.000
36.40000 121.000
36.60000 133.000
36.80000 162.000
37.00000 111.000
37.20000 78.000
37.40000 87.000
37.60000 91.000
37.80000 90.000
38.00000 83.000
38.20000 83.000
38.40000 74.000
38.60000 70.000
38.80000 67.000
39.00000 85.000
39.20000 71.000
39.40000 84.000
39.60000 74.000
39.80000 94.000
40.00000 80.000
40.20000 66.000
40.40000 71.000
40.60000 69.000
40.80000 58.000
41.00000 82.000
41.20000 85.000
41.40000 72.000
41.60000 72.000
41.80000 71.000
42.00000 56.000
42.20000 58.000
42.40000 81.000
42.60000 93.000
42.80000 154.000
43.00000 95.000
43.20000 59.000
43.40000 67.000
43.60000 57.000
43.80000 73.000
44.00000 66.000
44.20000 68.000
44.40000 66.000
44.60000 67.000
44.80000 57.000
45.00000 70.000
45.20000 75.000
45.40000 97.000
45.60000 128.000
45.80000 75.000
46.00000 70.000
46.20000 84.000
46.40000 65.000
46.60000 66.000
46.80000 64.000
47.00000 60.000
47.20000 57.000
47.40000 63.000
47.60000 70.000
47.80000 69.000
48.00000 79.000
48.20000 83.000
48.40000 64.000
48.60000 59.000
48.80000 53.000
49.00000 69.000
49.20000 61.000
49.40000 72.000
49.60000 79.000
49.80000 62.000
50.00000 60.000
50.20000 76.000
50.40000 70.000
50.60000 128.000
50.80000 131.000
51.00000 92.000
51.20000 57.000
51.40000 51.000
51.60000 60.000
51.80000 68.000
52.00000 60.000
52.20000 49.000
52.40000 59.000
52.60000 50.000
52.80000 73.000
53.00000 76.000
53.20000 85.000
53.40000 60.000
53.60000 60.000
53.80000 58.000
54.00000 56.000
54.20000 81.000
54.40000 53.000
54.60000 65.000
54.80000 44.000
55.00000 63.000
55.20000 53.000
55.40000 81.000
55.60000 61.000
55.80000 57.000
56.00000 53.000
56.20000 78.000
56.40000 47.000
56.60000 69.000
56.80000 65.000
57.00000 53.000
57.20000 48.000
57.40000 60.000
57.60000 65.000
57.80000 64.000
58.00000 53.000
58.20000 52.000
58.40000 53.000
58.60000 59.000
58.80000 53.000
59.00000 63.000
59.20000 58.000
59.40000 50.000
59.60000 48.000
59.80000 47.000
59.92000 49.000