Folder: campaign1/XRD (part 6)

File: 29.xy
5.00000 545.000
5.20000 530.000
5.40000 495.000
5.60000 451.000
5.80000 487.000
6.00000 424.000
6.20000 447.000
6.40000 423.000
6.60000 409.000
6.80000 393.000
7.00000 344.000
7.20000 376.000
7.40000 387.000
7.60000 309.000
7.80000 331.000
8.00000 324.000
8.20000 324.000
8.40000 302.000
8.60000 285.000
8.80000 269.000
9.00000 258.000
9.20000 270.000
9.40000 268.000
9.60000 259.000
9.80000 250.000
10.00000 239.000
10.20000 225.000
10.40000 224.000
10.60000 218.000
10.80000 222.000
11.00000 234.000
11.20000 243.000
11.40000 209.000
11.60000 195.000
11.80000 228.000
12.00000 234.000
12.20000 214.000
12.40000 216.000
12.60000 221.000
12.80000 245.000
13.00000 313.000
13.20000 245.000
13.40000 283.000
13.60000 369.000
13.80000 686.000
14.00000 1266.000
14.20000 5249.000
14.40000 26058.000
14.60000 2294.000
14.80000 359.000
15.00000 301.000
15.20000 232.000
15.40000 242.000
15.60000 209.000
15.80000 212.000
16.00000 206.000
16.20000 179.000
16.40000 182.000
16.60000 171.000
16.80000 186.000
17.00000 187.000
17.20000 175.000
17.40000 158.000
17.60000 182.000
17.80000 184.000
18.00000 168.000
18.20000 137.000
18.40000 175.000
18.60000 172.000
18.80000 162.000
19.00000 164.000
19.20000 167.000
19.40000 171.000
19.60000 172.000
19.80000 183.000
20.00000 207.000
20.20000 361.000
20.40000 1504.000
20.60000 421.000
20.80000 178.000
21.00000 172.000
21.20000 197.000
21.40000 159.000
21.60000 165.000
21.80000 152.000
22.00000 171.000
22.20000 173.000
22.40000 149.000
22.60000 174.000
22.80000 174.000
23.00000 172.000
23.20000 189.000
23.40000 139.000
23.60000 167.000
23.80000 185.000
24.00000 171.000
24.20000 162.000
24.40000 164.000
24.60000 150.000
24.80000 209.000
25.00000 365.000
25.20000 300.000
25.40000 157.000
25.60000 163.000
25.80000 146.000
26.00000 151.000
26.20000 164.000
26.40000 165.000
26.60000 157.000
26.80000 152.000
27.00000 158.000
27.20000 160.000
27.40000 167.000
27.60000 152.000
27.80000 190.000
28.00000 201.000
28.20000 186.000
28.40000 170.000
28.60000 208.000
28.80000 476.000
29.00000 2493.000
29.20000 1518.000
29.40000 228.000
29.60000 153.000
29.80000 131.000
30.00000 125.000
30.20000 131.000
30.40000 115.000
30.60000 130.000
30.80000 150.000
31.00000 154.000
31.20000 178.000
31.40000 116.000
31.60000 134.000
31.80000 131.000
32.00000 147.000
32.20000 191.000
32.40000 717.000
32.60000 2690.000
32.80000 557.000
33.00000 134.000
33.20000 124.000
33.40000 114.000
33.60000 104.000
33.80000 117.000
34.00000 93.000
34.20000 91.000
34.40000 94.000
34.60000 94.000
34.80000 87.000
35.00000 87.000
35.20000 98.000
35.40000 87.000
35.60000 136.000
35.80000 328.000
36.00000 153.000
36.20000 97.000
36.40000 78.000
36.60000 89.000
36.80000 81.000
37.00000 72.000
37.20000 97.000
37.40000 93.000
37.60000 87.000
37.80000 84.000
38.00000 71.000
38.20000 74.000
38.40000 82.000
38.60000 55.000
38.80000 85.000
39.00000 79.000
39.20000 63.000
39.40000 79.000
39.60000 84.000
39.80000 104.000
40.00000 87.000
40.20000 63.000
40.40000 70.000
40.60000 97.000
40.80000 94.000
41.00000 89.000
41.20000 108.000
41.40000 188.000
41.60000 790.000
41.80000 233.000
42.00000 100.000
42.20000 87.000
42.40000 84.000
42.60000 96.000
42.80000 87.000
43.00000 96.000
43.20000 92.000
43.40000 88.000
43.60000 87.000
43.80000 107.000
44.00000 116.000
44.20000 424.000
44.40000 315.000
44.60000 91.000
44.80000 89.000
45.00000 68.000
45.20000 86.000
45.40000 70.000
45.60000 75.000
45.80000 76.000
46.00000 69.000
46.20000 70.000
46.40000 67.000
46.60000 84.000
46.80000 96.000
47.00000 85.000
47.20000 76.000
47.40000 61.000
47.60000 71.000
47.80000 72.000
48.00000 66.000
48.20000 70.000
48.40000 61.000
48.60000 57.000
48.80000 72.000
49.00000 73.000
49.20000 126.000
49.40000 86.000
49.60000 63.000
49.80000 66.000
50.00000 70.000
50.20000 67.000
50.40000 66.000
50.60000 73.000
50.80000 77.000
51.00000 62.000
51.20000 66.000
51.40000 134.000
51.60000 313.000
51.80000 136.000
52.00000 60.000
52.20000 60.000
52.40000 66.000
52.60000 70.000
52.80000 52.000
53.00000 57.000
53.20000 62.000
53.40000 63.000
53.60000 69.000
53.80000 130.000
54.00000 114.000
54.20000 64.000
54.40000 60.000
54.60000 63.000
54.80000 59.000
55.00000 65.000
55.20000 60.000
55.40000 52.000
55.60000 54.000
55.80000 71.000
56.00000 81.000
56.20000 84.000
56.40000 60.000
56.60000 49.000
56.80000 61.000
57.00000 45.000
57.20000 44.000
57.40000 58.000
57.60000 58.000
57.80000 53.000
58.00000 62.000
58.20000 35.000
58.40000 50.000
58.60000 43.000
58.80000 56.000
59.00000 60.000
59.20000 59.000
59.40000 51.000
59.60000 69.000
59.80000 55.000
59.92000 54.000

File: 30.xy
5.00000 523.000
5.20000 486.000
5.40000 473.000
5.60000 469.000
5.80000 435.000
6.00000 415.000
6.20000 436.000
6.40000 409.000
6.60000 369.000
6.80000 384.000
7.00000 370.000
7.20000 358.000
7.40000 349.000
7.60000 346.000
7.80000 310.000
8.00000 310.000
8.20000 311.000
8.40000 289.000
8.60000 271.000
8.80000 292.000
9.00000 275.000
9.20000 281.000
9.40000 241.000
9.60000 263.000
9.80000 267.000
10.00000 229.000
10.20000 240.000
10.40000 229.000
10.60000 223.000
10.80000 220.000
11.00000 209.000
11.20000 212.000
11.40000 224.000
11.60000 230.000
11.80000 200.000
12.00000 241.000
12.20000 196.000
12.40000 208.000
12.60000 173.000
12.80000 182.000
13.00000 195.000
13.20000 199.000
13.40000 229.000
13.60000 229.000
13.80000 287.000
14.00000 435.000
14.20000 635.000
14.40000 1238.000
14.60000 527.000
14.80000 227.000
15.00000 202.000
15.20000 163.000
15.40000 173.000
15.60000 156.000
15.80000 155.000
16.00000 162.000
16.20000 166.000
16.40000 164.000
16.60000 139.000
16.80000 154.000
17.00000 158.000
17.20000 133.000
17.40000 146.000
17.60000 139.000
17.80000 147.000
18.00000 171.000
18.20000 169.000
18.40000 150.000
18.60000 137.000
18.80000 148.000
19.00000 165.000
19.20000 147.000
19.40000 174.000
19.60000 181.000
19.80000 141.000
20.00000 199.000
20.20000 262.000
20.40000 532.000
20.60000 594.000
20.80000 220.000
21.00000 169.000
21.20000 149.000
21.40000 144.000
21.60000 192.000
21.80000 194.000
22.00000 171.000
22.20000 161.000
22.40000 164.000
22.60000 174.000
22.80000 181.000
23.00000 180.000
23.20000 171.000
23.40000 184.000
23.60000 169.000
23.80000 199.000
24.00000 206.000
24.20000 189.000
24.40000 216.000
24.60000 201.000
24.80000 249.000
25.00000 485.000
25.20000 1367.000
25.40000 381.000
25.60000 192.000
25.80000 185.000
26.00000 156.000
26.20000 177.000
26.40000 178.000
26.60000 189.000
26.80000 164.000
27.00000 175.000
27.20000 149.000
27.40000 178.000
27.60000 147.000
27.80000 174.000
28.00000 167.000
28.20000 129.000
28.40000 161.000
28.60000 160.000
28.80000 218.000
29.00000 455.000
29.20000 1199.000
29.40000 362.000
29.60000 150.000
29.80000 117.000
30.00000 141.000
30.20000 141.000
30.40000 120.000
30.60000 128.000
30.80000 119.000
31.00000 114.000
31.20000 145.000
31.40000 139.000
31.60000 135.000
31.80000 131.000
32.00000 124.000
32.20000 151.000
32.40000 206.000
32.60000 851.000
32.80000 1606.000
33.00000 300.000
33.20000 117.000
33.40000 110.000
33.60000 114.000
33.80000 108.000
34.00000 81.000
34.20000 101.000
34.40000 110.000
34.60000 103.000
34.80000 85.000
35.00000 85.000
35.20000 99.000
35.40000 89.000
35.60000 86.000
35.80000 237.000
36.00000 638.000
36.20000 194.000
36.40000 105.000
36.60000 90.000
36.80000 89.000
37.00000 71.000
37.20000 101.000
37.40000 100.000
37.60000 92.000
37.80000 87.000
38.00000 80.000
38.20000 63.000
38.40000 69.000
38.60000 80.000
38.80000 91.000
39.00000 85.000
39.20000 77.000
39.40000 81.000
39.60000 73.000
39.80000 93.000
40.00000 107.000
40.20000 98.000
40.40000 84.000
40.60000 94.000
40.80000 99.000
41.00000 105.000
41.20000 120.000
41.40000 128.000
41.60000 468.000
41.80000 1611.000
42.00000 626.000
42.20000 123.000
42.40000 130.000
42.60000 129.000
42.80000 127.000
43.00000 87.000
43.20000 104.000
43.40000 107.000
43.60000 110.000
43.80000 109.000
44.00000 110.000
44.20000 179.000
44.40000 512.000
44.60000 465.000
44.80000 132.000
45.00000 114.000
45.20000 92.000
45.40000 85.000
45.60000 75.000
45.80000 77.000
46.00000 84.000
46.20000 90.000
46.40000 71.000
46.60000 68.000
46.80000 62.000
47.00000 86.000
47.20000 93.000
47.40000 69.000
47.60000 69.000
47.80000 88.000
48.00000 69.000
48.20000 70.000
48.40000 74.000
48.60000 61.000
48.80000 68.000
49.00000 85.000
49.20000 76.000
49.40000 75.000
49.60000 65.000
49.80000 65.000
50.00000 58.000
50.20000 68.000
50.40000 76.000
50.60000 62.000
50.80000 68.000
51.00000 77.000
51.20000 64.000
51.40000 61.000
51.60000 104.000
51.80000 286.000
52.00000 185.000
52.20000 77.000
52.40000 74.000
52.60000 58.000
52.80000 57.000
53.00000 59.000
53.20000 71.000
53.40000 60.000
53.60000 61.000
53.80000 77.000
54.00000 139.000
54.20000 145.000
54.40000 85.000
54.60000 60.000
54.80000 51.000
55.00000 57.000
55.20000 65.000
55.40000 49.000
55.60000 66.000
55.80000 53.000
56.00000 49.000
56.20000 86.000
56.40000 108.000
56.60000 67.000
56.80000 59.000
57.00000 44.000
57.20000 51.000
57.40000 52.000
57.60000 45.000
57.80000 55.000
58.00000 43.000
58.20000 51.000
58.40000 36.000
58.60000 55.000
58.80000 40.000
59.00000 58.000
59.20000 45.000
59.40000 62.000
59.60000 39.000
59.80000 60.000
59.92000 53.000

File: 32.xy
5.00000 568.000
5.20000 549.000
5.40000 532.000
5.60000 486.000
5.80000 514.000
6.00000 485.000
6.20000 470.000
6.40000 408.000
6.60000 406.000
6.80000 451.000
7.00000 388.000
7.20000 407.000
7.40000 353.000
7.60000 391.000
7.80000 341.000
8.00000 334.000
8.20000 341.000
8.40000 322.000
8.60000 321.000
8.80000 314.000
9.00000 302.000
9.20000 345.000
9.40000 313.000
9.60000 270.000
9.80000 294.000
10.00000 268.000
10.20000 256.000
10.40000 256.000
10.60000 243.000
10.80000 259.000
11.00000 253.000
11.20000 233.000
11.40000 244.000
11.60000 247.000
11.80000 218.000
12.00000 231.000
12.20000 241.000
12.40000 246.000
12.60000 230.000
12.80000 254.000
13.00000 270.000
13.20000 289.000
13.40000 298.000
13.60000 311.000
13.80000 371.000
14.00000 642.000
14.20000 1006.000
14.40000 2129.000
14.60000 8478.000
14.80000 15220.000
15.00000 1090.000
15.20000 428.000
15.40000 324.000
15.60000 276.000
15.80000 203.000
16.00000 180.000
16.20000 204.000
16.40000 177.000
16.60000 168.000
16.80000 148.000
17.00000 159.000
17.20000 166.000
17.40000 170.000
17.60000 149.000
17.80000 147.000
18.00000 142.000
18.20000 151.000
18.40000 149.000
18.60000 157.000
18.80000 163.000
19.00000 156.000
19.20000 146.000
19.40000 143.000
19.60000 132.000
19.80000 146.000
20.00000 165.000
20.20000 177.000
20.40000 212.000
20.60000 311.000
20.80000 837.000
21.00000 849.000
21.20000 196.000
21.40000 171.000
21.60000 142.000
21.80000 166.000
22.00000 145.000
22.20000 174.000
22.40000 141.000
22.60000 155.000
22.80000 151.000
23.00000 172.000
23.20000 184.000
23.40000 172.000
23.60000 170.000
23.80000 161.000
24.00000 162.000
24.20000 174.000
24.40000 157.000
24.60000 172.000
24.80000 158.000
25.00000 155.000
25.20000 168.000
25.40000 163.000
25.60000 239.000
25.80000 232.000
26.00000 121.000
26.20000 111.000
26.40000 112.000
26.60000 111.000
26.80000 136.000
27.00000 112.000
27.20000 119.000
27.40000 111.000
27.60000 111.000
27.80000 113.000
28.00000 125.000
28.20000 119.000
28.40000 147.000
28.60000 148.000
28.80000 144.000
29.00000 144.000
29.20000 172.000
29.40000 304.000
29.60000 1407.000
29.80000 3655.000
30.00000 469.000
30.20000 168.000
30.40000 128.000
30.60000 129.000
30.80000 121.000
31.00000 97.000
31.20000 118.000
31.40000 118.000
31.60000 126.000
31.80000 130.000
32.00000 128.000
32.20000 107.000
32.40000 116.000
32.60000 109.000
32.80000 123.000
33.00000 191.000
33.20000 790.000
33.40000 2439.000
33.60000 466.000
33.80000 145.000
34.00000 95.000
34.20000 101.000
34.40000 94.000
34.60000 66.000
34.80000 68.000
35.00000 93.000
35.20000 79.000
35.40000 70.000
35.60000 84.000
35.80000 64.000
36.00000 57.000
36.20000 79.000
36.40000 97.000
36.60000 335.000
36.80000 312.000
37.00000 91.000
37.20000 76.000
37.40000 66.000
37.60000 64.000
37.80000 65.000
38.00000 48.000
38.20000 48.000
38.40000 65.000
38.60000 70.000
38.80000 55.000
39.00000 47.000
39.20000 50.000
39.40000 61.000
39.60000 56.000
39.80000 44.000
40.00000 57.000
40.20000 40.000
40.40000 65.000
40.60000 56.000
40.80000 71.000
41.00000 55.000
41.20000 54.000
41.40000 70.000
41.60000 40.000
41.80000 50.000
42.00000 64.000
42.20000 69.000
42.40000 175.000
42.60000 595.000
42.80000 264.000
43.00000 81.000
43.20000 76.000
43.40000 78.000
43.60000 62.000
43.80000 63.000
44.00000 67.000
44.20000 70.000
44.40000 76.000
44.60000 63.000
44.80000 69.000
45.00000 84.000
45.20000 275.000
45.40000 550.000
45.60000 156.000
45.80000 79.000
46.00000 67.000
46.20000 57.000
46.40000 62.000
46.60000 46.000
46.80000 65.000
47.00000 55.000
47.20000 55.000
47.40000 44.000
47.60000 61.000
47.80000 97.000
48.00000 149.000
48.20000 64.000
48.40000 60.000
48.60000 38.000
48.80000 50.000
49.00000 46.000
49.20000 49.000
49.40000 43.000
49.60000 48.000
49.80000 32.000
50.00000 47.000
50.20000 34.000
50.40000 44.000
50.60000 66.000
50.80000 38.000
51.00000 42.000
51.20000 44.000
51.40000 42.000
51.60000 41.000
51.80000 47.000
52.00000 46.000
52.20000 35.000
52.40000 50.000
52.60000 60.000
52.80000 118.000
53.00000 118.000
53.20000 59.000
53.40000 50.000
53.60000 57.000
53.80000 49.000
54.00000 30.000
54.20000 57.000
54.40000 39.000
54.60000 44.000
54.80000 55.000
55.00000 65.000
55.20000 166.000
55.40000 113.000
55.60000 51.000
55.80000 57.000
56.00000 37.000
56.20000 26.000
56.40000 38.000
56.60000 43.000
56.80000 35.000
57.00000 35.000
57.20000 47.000
57.40000 81.000
57.60000 106.000
57.80000 46.000
58.00000 36.000
58.20000 39.000
58.40000 27.000
58.60000 44.000
58.80000 38.000
59.00000 42.000
59.20000 30.000
59.40000 36.000
59.60000 32.000
59.80000 40.000
59.92000 34.000

File: 33.xy
5.00000 618.000
5.20000 601.000
5.40000 565.000
5.60000 555.000
5.80000 504.000
6.00000 533.000
6.20000 468.000
6.40000 452.000
6.60000 452.000
6.80000 415.000
7.00000 421.000
7.20000 406.000
7.40000 405.000
7.60000 368.000
7.80000 368.000
8.00000 392.000
8.20000 338.000
8.40000 336.000
8.60000 349.000
8.80000 327.000
9.00000 309.000
9.20000 306.000
9.40000 292.000
9.60000 286.000
9.80000 282.000
10.00000 294.000
10.20000 262.000
10.40000 271.000
10.60000 263.000
10.80000 255.000
11.00000 276.000
11.20000 238.000
11.40000 267.000
11.60000 234.000
11.80000 262.000
12.00000 235.000
12.20000 275.000
12.40000 282.000
12.60000 269.000
12.80000 279.000
13.00000 258.000
13.20000 380.000
13.40000 369.000
13.60000 325.000
13.80000 441.000
14.00000 763.000
14.20000 1157.000
14.40000 2459.000
14.60000 11817.000
14.80000 21714.000
15.00000 1682.000
15.20000 674.000
15.40000 406.000
15.60000 368.000
15.80000 235.000
16.00000 218.000
16.20000 212.000
16.40000 201.000
16.60000 200.000
16.80000 172.000
17.00000 170.000
17.20000 165.000
17.40000 170.000
17.60000 166.000
17.80000 173.000
18.00000 152.000
18.20000 145.000
18.40000 165.000
18.60000 158.000
18.80000 139.000
19.00000 152.000
19.20000 148.000
19.40000 130.000
19.60000 165.000
19.80000 167.000
20.00000 158.000
20.20000 143.000
20.40000 184.000
20.60000 286.000
20.80000 814.000
21.00000 755.000
21.20000 212.000
21.40000 157.000
21.60000 133.000
21.80000 125.000
22.00000 143.000
22.20000 129.000
22.40000 140.000
22.60000 109.000
22.80000 125.000
23.00000 115.000
23.20000 136.000
23.40000 126.000
23.60000 115.000
23.80000 119.000
24.00000 137.000
24.20000 131.000
24.40000 127.000
24.60000 126.000
24.80000 119.000
25.00000 113.000
25.20000 113.000
25.40000 141.000
25.60000 198.000
25.80000 170.000
26.00000 119.000
26.20000 123.000
26.40000 110.000
26.60000 93.000
26.80000 120.000
27.00000 118.000
27.20000 128.000
27.40000 122.000
27.60000 114.000
27.80000 121.000
28.00000 136.000
28.20000 127.000
28.40000 154.000
28.60000 158.000
28.80000 136.000
29.00000 127.000
29.20000 161.000
29.40000 309.000
29.60000 1266.000
29.80000 2785.000
30.00000 368.000
30.20000 145.000
30.40000 129.000
30.60000 118.000
30.80000 115.000
31.00000 113.000
31.20000 117.000
31.40000 110.000
31.60000 96.000
31.80000 120.000
32.00000 122.000
32.20000 128.000
32.40000 129.000
32.60000 109.000
32.80000 111.000
33.00000 195.000
33.20000 686.000
33.40000 1912.000
33.60000 409.000
33.80000 152.000
34.00000 87.000
34.20000 101.000
34.40000 76.000
34.60000 66.000
34.80000 73.000
35.00000 79.000
35.20000 84.000
35.40000 78.000
35.60000 79.000
35.80000 50.000
36.00000 69.000
36.20000 73.000
36.40000 91.000
36.60000 226.000
36.80000 190.000
37.00000 73.000
37.20000 65.000
37.40000 48.000
37.60000 71.000
37.80000 48.000
38.00000 48.000
38.20000 54.000
38.40000 65.000
38.60000 46.000
38.80000 36.000
39.00000 50.000
39.20000 48.000
39.40000 54.000
39.60000 43.000
39.80000 52.000
40.00000 48.000
40.20000 35.000
40.40000 58.000
40.60000 57.000
40.80000 65.000
41.00000 44.000
41.20000 36.000
41.40000 54.000
41.60000 56.000
41.80000 61.000
42.00000 65.000
42.20000 60.000
42.40000 129.000
42.60000 401.000
42.80000 176.000
43.00000 68.000
43.20000 67.000
43.40000 52.000
43.60000 64.000
43.80000 62.000
44.00000 50.000
44.20000 69.000
44.40000 68.000
44.60000 77.000
44.80000 57.000
45.00000 86.000
45.20000 224.000
45.40000 402.000
45.60000 146.000
45.80000 57.000
46.00000 57.000
46.20000 62.000
46.40000 43.000
46.60000 51.000
46.80000 55.000
47.00000 43.000
47.20000 50.000
47.40000 47.000
47.60000 63.000
47.80000 108.000
48.00000 138.000
48.20000 77.000
48.40000 46.000
48.60000 60.000
48.80000 45.000
49.00000 42.000
49.20000 39.000
49.40000 37.000
49.60000 34.000
49.80000 50.000
50.00000 36.000
50.20000 54.000
50.40000 53.000
50.60000 52.000
50.80000 39.000
51.00000 45.000
51.20000 39.000
51.40000 41.000
51.60000 41.000
51.80000 44.000
52.00000 51.000
52.20000 43.000
52.40000 45.000
52.60000 48.000
52.80000 106.000
53.00000 80.000
53.20000 57.000
53.40000 39.000
53.60000 44.000
53.80000 34.000
54.00000 38.000
54.20000 33.000
54.40000 48.000
54.60000 40.000
54.80000 43.000
55.00000 64.000
55.20000 128.000
55.40000 91.000
55.60000 46.000
55.80000 30.000
56.00000 56.000
56.20000 43.000
56.40000 37.000
56.60000 48.000
56.80000 32.000
57.00000 34.000
57.20000 54.000
57.40000 92.000
57.60000 88.000
57.80000 37.000
58.00000 31.000
58.20000 40.000
58.40000 38.000
58.60000 39.000
58.80000 37.000
59.00000 40.000
59.20000 35.000
59.40000 24.000
59.60000 31.000
59.80000 34.000
59.92000 41.000

File: 34.xy
5.00000 590.000
5.20000 519.000
5.40000 528.000
5.60000 589.000
5.80000 501.000
6.00000 489.000
6.20000 467.000
6.40000 459.000
6.60000 427.000
6.80000 395.000
7.00000 423.000
7.20000 403.000
7.40000 390.000
7.60000 386.000
7.80000 366.000
8.00000 340.000
8.20000 353.000
8.40000 376.000
8.60000 347.000
8.80000 324.000
9.00000 306.000
9.20000 370.000
9.40000 313.000
9.60000 287.000
9.80000 314.000
10.00000 282.000
10.20000 251.000
10.40000 287.000
10.60000 241.000
10.80000 264.000
11.00000 259.000
11.20000 284.000
11.40000 250.000
11.60000 216.000
11.80000 220.000
12.00000 233.000
12.20000 233.000
12.40000 216.000
12.60000 218.000
12.80000 182.000
13.00000 220.000
13.20000 223.000
13.40000 211.000
13.60000 227.000
13.80000 223.000
14.00000 268.000
14.20000 336.000
14.40000 464.000
14.60000 959.000
14.80000 2244.000
15.00000 383.000
15.20000 216.000
15.40000 162.000
15.60000 191.000
15.80000 184.000
16.00000 170.000
16.20000 198.000
16.40000 171.000
16.60000 171.000
16.80000 185.000
17.00000 168.000
17.20000 178.000
17.40000 169.000
17.60000 178.000
17.80000 149.000
18.00000 162.000
18.20000 178.000
18.40000 178.000
18.60000 168.000
18.80000 136.000
19.00000 169.000
19.20000 173.000
19.40000 162.000
19.60000 172.000
19.80000 161.000
20.00000 172.000
20.20000 189.000
20.40000 225.000
20.60000 314.000
20.80000 899.000
21.00000 2430.000
21.20000 461.000
21.40000 198.000
21.60000 178.000
21.80000 177.000
22.00000 161.000
22.20000 162.000
22.40000 154.000
22.60000 165.000
22.80000 175.000
23.00000 193.000
23.20000 175.000
23.40000 167.000
23.60000 137.000
23.80000 184.000
24.00000 159.000
24.20000 154.000
24.40000 166.000
24.60000 170.000
24.80000 178.000
25.00000 165.000
25.20000 177.000
25.40000 195.000
25.60000 297.000
25.80000 823.000
26.00000 252.000
26.20000 133.000
26.40000 148.000
26.60000 134.000
26.80000 135.000
27.00000 142.000
27.20000 135.000
27.40000 147.000
27.60000 121.000
27.80000 116.000
28.00000 140.000
28.20000 114.000
28.40000 125.000
28.60000 147.000
28.80000 137.000
29.00000 128.000
29.20000 122.000
29.40000 128.000
29.60000 242.000
29.80000 588.000
30.00000 628.000
30.20000 159.000
30.40000 105.000
30.60000 113.000
30.80000 118.000
31.00000 133.000
31.20000 135.000
31.40000 107.000
31.60000 103.000
31.80000 120.000
32.00000 129.000
32.20000 124.000
32.40000 132.000
32.60000 117.000
32.80000 123.000
33.00000 163.000
33.20000 233.000
33.40000 1022.000
33.60000 2299.000
33.80000 304.000
34.00000 123.000
34.20000 106.000
34.40000 120.000
34.60000 93.000
34.80000 122.000
35.00000 120.000
35.20000 113.000
35.40000 108.000
35.60000 112.000
35.80000 97.000
36.00000 89.000
36.20000 126.000
36.40000 124.000
36.60000 276.000
36.80000 1317.000
37.00000 952.000
37.20000 153.000
37.40000 105.000
37.60000 96.000
37.80000 103.000
38.00000 91.000
38.20000 114.000
38.40000 89.000
38.60000 93.000
38.80000 85.000
39.00000 91.000
39.20000 71.000
39.40000 89.000
39.60000 74.000
39.80000 91.000
40.00000 73.000
40.20000 107.000
40.40000 75.000
40.60000 90.000
40.80000 88.000
41.00000 103.000
41.20000 105.000
41.40000 103.000
41.60000 95.000
41.80000 98.000
42.00000 117.000
42.20000 92.000
42.40000 150.000
42.60000 345.000
42.80000 1807.000
43.00000 1039.000
43.20000 167.000
43.40000 123.000
43.60000 145.000
43.80000 121.000
44.00000 106.000
44.20000 113.000
44.40000 123.000
44.60000 116.000
44.80000 116.000
45.00000 115.000
45.20000 129.000
45.40000 508.000
45.60000 1855.000
45.80000 511.000
46.00000 128.000
46.20000 131.000
46.40000 99.000
46.60000 78.000
46.80000 68.000
47.00000 76.000
47.20000 76.000
47.40000 74.000
47.60000 82.000
47.80000 78.000
48.00000 92.000
48.20000 182.000
48.40000 105.000
48.60000 75.000
48.80000 73.000
49.00000 77.000
49.20000 71.000
49.40000 73.000
49.60000 72.000
49.80000 74.000
50.00000 64.000
50.20000 72.000
50.40000 66.000
50.60000 66.000
50.80000 82.000
51.00000 71.000
51.20000 57.000
51.40000 63.000
51.60000 80.000
51.80000 77.000
52.00000 55.000
52.20000 60.000
52.40000 60.000
52.60000 71.000
52.80000 86.000
53.00000 203.000
53.20000 330.000
53.40000 142.000
53.60000 71.000
53.80000 59.000
54.00000 58.000
54.20000 71.000
54.40000 66.000
54.60000 65.000
54.80000 52.000
55.00000 73.000
55.20000 95.000
55.40000 257.000
55.60000 355.000
55.80000 128.000
56.00000 74.000
56.20000 48.000
56.40000 55.000
56.60000 72.000
56.80000 56.000
57.00000 57.000
57.20000 84.000
57.40000 68.000
57.60000 113.000
57.80000 292.000
58.00000 157.000
58.20000 78.000
58.40000 76.000
58.60000 72.000
58.80000 68.000
59.00000 54.000
59.20000 46.000
59.40000 47.000
59.60000 50.000
59.80000 49.000
59.92000 64.000