Folder: campaign1/XRD (part 10)

File: 51.xy
5.00000 1466.000
5.20000 1337.000
5.40000 1316.000
5.60000 1314.000
5.80000 1237.000
6.00000 1131.000
6.20000 1119.000
6.40000 1063.000
6.60000 1013.000
6.80000 1111.000
7.00000 1051.000
7.20000 985.000
7.40000 1056.000
7.60000 1010.000
7.80000 961.000
8.00000 977.000
8.20000 976.000
8.40000 977.000
8.60000 923.000
8.80000 861.000
9.00000 839.000
9.20000 849.000
9.40000 749.000
9.60000 738.000
9.80000 757.000
10.00000 766.000
10.20000 733.000
10.40000 699.000
10.60000 687.000
10.80000 685.000
11.00000 679.000
11.20000 726.000
11.40000 686.000
11.60000 663.000
11.80000 751.000
12.00000 784.000
12.20000 889.000
12.40000 777.000
12.60000 801.000
12.80000 1057.000
13.00000 902.000
13.20000 697.000
13.40000 685.000
13.60000 673.000
13.80000 658.000
14.00000 638.000
14.20000 726.000
14.40000 633.000
14.60000 671.000
14.80000 661.000
15.00000 652.000
15.20000 626.000
15.40000 658.000
15.60000 649.000
15.80000 687.000
16.00000 618.000
16.20000 736.000
16.40000 721.000
16.60000 780.000
16.80000 805.000
17.00000 775.000
17.20000 746.000
17.40000 766.000
17.60000 755.000
17.80000 792.000
18.00000 770.000
18.20000 760.000
18.40000 764.000
18.60000 801.000
18.80000 791.000
19.00000 838.000
19.20000 849.000
19.40000 899.000
19.60000 843.000
19.80000 945.000
20.00000 927.000
20.20000 924.000
20.40000 994.000
20.60000 1025.000
20.80000 1059.000
21.00000 1140.000
21.20000 1165.000
21.40000 1105.000
21.60000 1107.000
21.80000 1083.000
22.00000 1049.000
22.20000 1090.000
22.40000 1135.000
22.60000 1114.000
22.80000 1157.000
23.00000 1122.000
23.20000 1186.000
23.40000 1108.000
23.60000 1130.000
23.80000 1113.000
24.00000 1214.000
24.20000 1272.000
24.40000 1366.000
24.60000 1335.000
24.80000 1316.000
25.00000 1488.000
25.20000 1794.000
25.40000 2188.000
25.60000 2048.000
25.80000 1766.000
26.00000 1946.000
26.20000 1497.000
26.40000 1203.000
26.60000 1178.000
26.80000 1220.000
27.00000 1159.000
27.20000 1269.000
27.40000 1415.000
27.60000 1789.000
27.80000 1684.000
28.00000 1337.000
28.20000 1132.000
28.40000 1108.000
28.60000 1091.000
28.80000 1063.000
29.00000 1080.000
29.20000 1030.000
29.40000 1055.000
29.60000 1195.000
29.80000 1513.000
30.00000 1549.000
30.20000 1160.000
30.40000 1060.000
30.60000 1008.000
30.80000 951.000
31.00000 995.000
31.20000 950.000
31.40000 911.000
31.60000 869.000
31.80000 954.000
32.00000 924.000
32.20000 1006.000
32.40000 1093.000
32.60000 1195.000
32.80000 1114.000
33.00000 1013.000
33.20000 891.000
33.40000 862.000
33.60000 797.000
33.80000 833.000
34.00000 737.000
34.20000 710.000
34.40000 718.000
34.60000 731.000
34.80000 668.000
35.00000 707.000
35.20000 638.000
35.40000 698.000
35.60000 654.000
35.80000 677.000
36.00000 665.000
36.20000 642.000
36.40000 635.000
36.60000 571.000
36.80000 541.000
37.00000 612.000
37.20000 577.000
37.40000 579.000
37.60000 588.000
37.80000 549.000
38.00000 538.000
38.20000 548.000
38.40000 558.000
38.60000 566.000
38.80000 568.000
39.00000 624.000
39.20000 579.000
39.40000 633.000
39.60000 581.000
39.80000 521.000
40.00000 539.000
40.20000 518.000
40.40000 506.000
40.60000 494.000
40.80000 533.000
41.00000 571.000
41.20000 569.000
41.40000 553.000
41.60000 500.000
41.80000 532.000
42.00000 491.000
42.20000 561.000
42.40000 604.000
42.60000 696.000
42.80000 606.000
43.00000 713.000
43.20000 829.000
43.40000 664.000
43.60000 560.000
43.80000 547.000
44.00000 518.000
44.20000 552.000
44.40000 558.000
44.60000 492.000
44.80000 505.000
45.00000 531.000
45.20000 521.000
45.40000 472.000
45.60000 506.000
45.80000 518.000
46.00000 569.000
46.20000 689.000
46.40000 618.000
46.60000 537.000
46.80000 512.000
47.00000 484.000
47.20000 481.000
47.40000 498.000
47.60000 485.000
47.80000 460.000
48.00000 457.000
48.20000 437.000
48.40000 483.000
48.60000 463.000
48.80000 472.000
49.00000 468.000
49.20000 494.000
49.40000 448.000
49.60000 447.000
49.80000 449.000
50.00000 484.000
50.20000 471.000
50.40000 499.000
50.60000 538.000
50.80000 567.000
51.00000 539.000
51.20000 551.000
51.40000 509.000
51.60000 486.000
51.80000 499.000
52.00000 516.000
52.20000 556.000
52.40000 514.000
52.60000 487.000
52.80000 475.000
53.00000 452.000
53.20000 452.000
53.40000 489.000
53.60000 480.000
53.80000 428.000
54.00000 440.000
54.20000 463.000
54.40000 414.000
54.60000 439.000
54.80000 404.000
55.00000 421.000
55.20000 465.000
55.40000 477.000
55.60000 439.000
55.80000 459.000
56.00000 448.000
56.20000 427.000
56.40000 388.000
56.60000 374.000
56.80000 380.000
57.00000 444.000
57.20000 463.000
57.40000 458.000
57.60000 436.000
57.80000 410.000
58.00000 482.000
58.20000 435.000
58.40000 420.000
58.60000 403.000
58.80000 478.000
59.00000 406.000
59.20000 474.000
59.40000 407.000
59.60000 426.000
59.80000 422.000
59.92000 432.000

File: 52.xy
5.00000 1445.000
5.20000 1347.000
5.40000 1301.000
5.60000 1255.000
5.80000 1184.000
6.00000 1187.000
6.20000 1127.000
6.40000 1115.000
6.60000 1066.000
6.80000 1103.000
7.00000 991.000
7.20000 941.000
7.40000 1033.000
7.60000 939.000
7.80000 962.000
8.00000 965.000
8.20000 991.000
8.40000 1007.000
8.60000 908.000
8.80000 797.000
9.00000 858.000
9.20000 765.000
9.40000 835.000
9.60000 732.000
9.80000 750.000
10.00000 705.000
10.20000 734.000
10.40000 766.000
10.60000 728.000
10.80000 666.000
11.00000 696.000
11.20000 689.000
11.40000 740.000
11.60000 708.000
11.80000 733.000
12.00000 762.000
12.20000 778.000
12.40000 764.000
12.60000 846.000
12.80000 949.000
13.00000 863.000
13.20000 710.000
13.40000 646.000
13.60000 669.000
13.80000 673.000
14.00000 669.000
14.20000 626.000
14.40000 652.000
14.60000 630.000
14.80000 682.000
15.00000 676.000
15.20000 639.000
15.40000 649.000
15.60000 677.000
15.80000 655.000
16.00000 683.000
16.20000 739.000
16.40000 724.000
16.60000 732.000
16.80000 775.000
17.00000 788.000
17.20000 759.000
17.40000 777.000
17.60000 786.000
17.80000 753.000
18.00000 772.000
18.20000 743.000
18.40000 845.000
18.60000 851.000
18.80000 836.000
19.00000 877.000
19.20000 922.000
19.40000 921.000
19.60000 906.000
19.80000 939.000
20.00000 941.000
20.20000 960.000
20.40000 968.000
20.60000 958.000
20.80000 1061.000
21.00000 1077.000
21.20000 1145.000
21.40000 1089.000
21.60000 1077.000
21.80000 1085.000
22.00000 1105.000
22.20000 1097.000
22.40000 1102.000
22.60000 1129.000
22.80000 1132.000
23.00000 1098.000
23.20000 1163.000
23.40000 1204.000
23.60000 1106.000
23.80000 1179.000
24.00000 1304.000
24.20000 1296.000
24.40000 1347.000
24.60000 1315.000
24.80000 1385.000
25.00000 1478.000
25.20000 1799.000
25.40000 2050.000
25.60000 2024.000
25.80000 1804.000
26.00000 1802.000
26.20000 1512.000
26.40000 1307.000
26.60000 1190.000
26.80000 1222.000
27.00000 1225.000
27.20000 1286.000
27.40000 1487.000
27.60000 1624.000
27.80000 1613.000
28.00000 1311.000
28.20000 1186.000
28.40000 1122.000
28.60000 1077.000
28.80000 1139.000
29.00000 1086.000
29.20000 1084.000
29.40000 1082.000
29.60000 1198.000
29.80000 1443.000
30.00000 1564.000
30.20000 1218.000
30.40000 1101.000
30.60000 1061.000
30.80000 1032.000
31.00000 927.000
31.20000 998.000
31.40000 897.000
31.60000 934.000
31.80000 922.000
32.00000 932.000
32.20000 929.000
32.40000 1017.000
32.60000 1151.000
32.80000 999.000
33.00000 977.000
33.20000 868.000
33.40000 846.000
33.60000 793.000
33.80000 812.000
34.00000 771.000
34.20000 762.000
34.40000 708.000
34.60000 712.000
34.80000 716.000
35.00000 685.000
35.20000 694.000
35.40000 679.000
35.60000 667.000
35.80000 687.000
36.00000 615.000
36.20000 661.000
36.40000 628.000
36.60000 633.000
36.80000 592.000
37.00000 562.000
37.20000 617.000
37.40000 589.000
37.60000 572.000
37.80000 541.000
38.00000 527.000
38.20000 557.000
38.40000 529.000
38.60000 559.000
38.80000 526.000
39.00000 555.000
39.20000 573.000
39.40000 535.000
39.60000 525.000
39.80000 533.000
40.00000 552.000
40.20000 522.000
40.40000 507.000
40.60000 497.000
40.80000 536.000
41.00000 545.000
41.20000 513.000
41.40000 499.000
41.60000 523.000
41.80000 515.000
42.00000 553.000
42.20000 561.000
42.40000 596.000
42.60000 658.000
42.80000 658.000
43.00000 618.000
43.20000 723.000
43.40000 674.000
43.60000 578.000
43.80000 585.000
44.00000 557.000
44.20000 538.000
44.40000 515.000
44.60000 507.000
44.80000 535.000
45.00000 545.000
45.20000 516.000
45.40000 540.000
45.60000 521.000
45.80000 551.000
46.00000 568.000
46.20000 560.000
46.40000 594.000
46.60000 516.000
46.80000 505.000
47.00000 467.000
47.20000 504.000
47.40000 476.000
47.60000 471.000
47.80000 453.000
48.00000 508.000
48.20000 498.000
48.40000 472.000
48.60000 441.000
48.80000 448.000
49.00000 457.000
49.20000 452.000
49.40000 463.000
49.60000 486.000
49.80000 477.000
50.00000 495.000
50.20000 492.000
50.40000 503.000
50.60000 486.000
50.80000 521.000
51.00000 562.000
51.20000 522.000
51.40000 478.000
51.60000 481.000
51.80000 451.000
52.00000 498.000
52.20000 529.000
52.40000 480.000
52.60000 514.000
52.80000 458.000
53.00000 451.000
53.20000 448.000
53.40000 482.000
53.60000 431.000
53.80000 435.000
54.00000 437.000
54.20000 434.000
54.40000 418.000
54.60000 479.000
54.80000 441.000
55.00000 429.000
55.20000 452.000
55.40000 456.000
55.60000 441.000
55.80000 410.000
56.00000 414.000
56.20000 386.000
56.40000 476.000
56.60000 445.000
56.80000 418.000
57.00000 418.000
57.20000 417.000
57.40000 443.000
57.60000 435.000
57.80000 434.000
58.00000 444.000
58.20000 396.000
58.40000 430.000
58.60000 432.000
58.80000 431.000
59.00000 444.000
59.20000 478.000
59.40000 386.000
59.60000 446.000
59.80000 419.000
59.92000 399.000

File: 53.xy
5.00000 1374.000
5.20000 1355.000
5.40000 1293.000
5.60000 1241.000
5.80000 1178.000
6.00000 1151.000
6.20000 1066.000
6.40000 1077.000
6.60000 1021.000
6.80000 1058.000
7.00000 1004.000
7.20000 962.000
7.40000 937.000
7.60000 950.000
7.80000 972.000
8.00000 967.000
8.20000 974.000
8.40000 1491.000
8.60000 979.000
8.80000 875.000
9.00000 767.000
9.20000 712.000
9.40000 764.000
9.60000 721.000
9.80000 698.000
10.00000 714.000
10.20000 714.000
10.40000 709.000
10.60000 690.000
10.80000 736.000
11.00000 692.000
11.20000 660.000
11.40000 625.000
11.60000 681.000
11.80000 686.000
12.00000 803.000
12.20000 840.000
12.40000 787.000
12.60000 871.000
12.80000 1447.000
13.00000 1519.000
13.20000 745.000
13.40000 680.000
13.60000 633.000
13.80000 627.000
14.00000 635.000
14.20000 608.000
14.40000 621.000
14.60000 625.000
14.80000 652.000
15.00000 693.000
15.20000 613.000
15.40000 615.000
15.60000 644.000
15.80000 689.000
16.00000 699.000
16.20000 659.000
16.40000 716.000
16.60000 742.000
16.80000 932.000
17.00000 1056.000
17.20000 717.000
17.40000 753.000
17.60000 730.000
17.80000 747.000
18.00000 769.000
18.20000 770.000
18.40000 773.000
18.60000 817.000
18.80000 817.000
19.00000 807.000
19.20000 847.000
19.40000 855.000
19.60000 814.000
19.80000 844.000
20.00000 980.000
20.20000 944.000
20.40000 987.000
20.60000 956.000
20.80000 967.000
21.00000 1069.000
21.20000 1091.000
21.40000 1035.000
21.60000 1043.000
21.80000 1080.000
22.00000 1087.000
22.20000 1045.000
22.40000 1043.000
22.60000 1078.000
22.80000 1105.000
23.00000 1148.000
23.20000 1144.000
23.40000 1137.000
23.60000 1140.000
23.80000 1139.000
24.00000 1177.000
24.20000 1221.000
24.40000 1373.000
24.60000 1390.000
24.80000 1458.000
25.00000 1672.000
25.20000 2533.000
25.40000 7806.000
25.60000 8251.000
25.80000 3178.000
26.00000 4479.000
26.20000 2666.000
26.40000 1583.000
26.60000 1288.000
26.80000 1265.000
27.00000 1255.000
27.20000 1328.000
27.40000 1634.000
27.60000 2720.000
27.80000 2580.000
28.00000 1552.000
28.20000 1213.000
28.40000 1119.000
28.60000 1089.000
28.80000 1026.000
29.00000 1081.000
29.20000 1048.000
29.40000 1061.000
29.60000 1147.000
29.80000 1467.000
30.00000 1610.000
30.20000 1240.000
30.40000 1019.000
30.60000 948.000
30.80000 935.000
31.00000 937.000
31.20000 902.000
31.40000 938.000
31.60000 899.000
31.80000 910.000
32.00000 900.000
32.20000 899.000
32.40000 1050.000
32.60000 1072.000
32.80000 1022.000
33.00000 938.000
33.20000 834.000
33.40000 803.000
33.60000 799.000
33.80000 742.000
34.00000 693.000
34.20000 781.000
34.40000 671.000
34.60000 702.000
34.80000 679.000
35.00000 670.000
35.20000 715.000
35.40000 684.000
35.60000 658.000
35.80000 631.000
36.00000 604.000
36.20000 640.000
36.40000 552.000
36.60000 579.000
36.80000 586.000
37.00000 592.000
37.20000 555.000
37.40000 569.000
37.60000 552.000
37.80000 560.000
38.00000 502.000
38.20000 531.000
38.40000 505.000
38.60000 507.000
38.80000 575.000
39.00000 579.000
39.20000 546.000
39.40000 618.000
39.60000 544.000
39.80000 564.000
40.00000 503.000
40.20000 488.000
40.40000 488.000
40.60000 506.000
40.80000 514.000
41.00000 534.000
41.20000 589.000
41.40000 489.000
41.60000 529.000
41.80000 550.000
42.00000 529.000
42.20000 520.000
42.40000 623.000
42.60000 588.000
42.80000 610.000
43.00000 656.000
43.20000 801.000
43.40000 693.000
43.60000 612.000
43.80000 505.000
44.00000 499.000
44.20000 504.000
44.40000 493.000
44.60000 475.000
44.80000 549.000
45.00000 496.000
45.20000 522.000
45.40000 482.000
45.60000 502.000
45.80000 518.000
46.00000 543.000
46.20000 573.000
46.40000 568.000
46.60000 535.000
46.80000 510.000
47.00000 485.000
47.20000 488.000
47.40000 482.000
47.60000 479.000
47.80000 461.000
48.00000 433.000
48.20000 452.000
48.40000 497.000
48.60000 460.000
48.80000 459.000
49.00000 450.000
49.20000 489.000
49.40000 456.000
49.60000 464.000
49.80000 421.000
50.00000 439.000
50.20000 477.000
50.40000 486.000
50.60000 519.000
50.80000 563.000
51.00000 580.000
51.20000 532.000
51.40000 496.000
51.60000 462.000
51.80000 487.000
52.00000 657.000
52.20000 829.000
52.40000 1166.000
52.60000 853.000
52.80000 614.000
53.00000 499.000
53.20000 544.000
53.40000 563.000
53.60000 550.000
53.80000 529.000
54.00000 455.000
54.20000 382.000
54.40000 476.000
54.60000 428.000
54.80000 453.000
55.00000 448.000
55.20000 467.000
55.40000 480.000
55.60000 481.000
55.80000 447.000
56.00000 476.000
56.20000 440.000
56.40000 442.000
56.60000 420.000
56.80000 433.000
57.00000 408.000
57.20000 455.000
57.40000 414.000
57.60000 435.000
57.80000 375.000
58.00000 438.000
58.20000 434.000
58.40000 430.000
58.60000 405.000
58.80000 463.000
59.00000 423.000
59.20000 442.000
59.40000 453.000
59.60000 426.000
59.80000 421.000
59.92000 434.000

File: 54.xy
5.00000 1554.000
5.20000 1442.000
5.40000 1285.000
5.60000 1344.000
5.80000 1273.000
6.00000 1227.000
6.20000 1194.000
6.40000 1213.000
6.60000 1073.000
6.80000 1100.000
7.00000 1038.000
7.20000 991.000
7.40000 997.000
7.60000 992.000
7.80000 1085.000
8.00000 973.000
8.20000 1157.000
8.40000 1347.000
8.60000 1059.000
8.80000 944.000
9.00000 845.000
9.20000 818.000
9.40000 783.000
9.60000 802.000
9.80000 779.000
10.00000 770.000
10.20000 772.000
10.40000 740.000
10.60000 756.000
10.80000 726.000
11.00000 703.000
11.20000 681.000
11.40000 673.000
11.60000 698.000
11.80000 765.000
12.00000 770.000
12.20000 867.000
12.40000 841.000
12.60000 804.000
12.80000 926.000
13.00000 917.000
13.20000 684.000
13.40000 688.000
13.60000 691.000
13.80000 698.000
14.00000 733.000
14.20000 670.000
14.40000 722.000
14.60000 669.000
14.80000 763.000
15.00000 704.000
15.20000 759.000
15.40000 666.000
15.60000 680.000
15.80000 746.000
16.00000 687.000
16.20000 772.000
16.40000 822.000
16.60000 1001.000
16.80000 1247.000
17.00000 1114.000
17.20000 881.000
17.40000 795.000
17.60000 817.000
17.80000 846.000
18.00000 927.000
18.20000 866.000
18.40000 891.000
18.60000 930.000
18.80000 970.000
19.00000 924.000
19.20000 989.000
19.40000 966.000
19.60000 1003.000
19.80000 1007.000
20.00000 1046.000
20.20000 1061.000
20.40000 1139.000
20.60000 1129.000
20.80000 1144.000
21.00000 1203.000
21.20000 1329.000
21.40000 1174.000
21.60000 1177.000
21.80000 1185.000
22.00000 1187.000
22.20000 1190.000
22.40000 1262.000
22.60000 1271.000
22.80000 1247.000
23.00000 1305.000
23.20000 1233.000
23.40000 1276.000
23.60000 1293.000
23.80000 1341.000
24.00000 1341.000
24.20000 1452.000
24.40000 1463.000
24.60000 1574.000
24.80000 1528.000
25.00000 1853.000
25.20000 2855.000
25.40000 4458.000
25.60000 3168.000
25.80000 1937.000
26.00000 1660.000
26.20000 1437.000
26.40000 1383.000
26.60000 1342.000
26.80000 1242.000
27.00000 1270.000
27.20000 1281.000
27.40000 1335.000
27.60000 1392.000
27.80000 1339.000
28.00000 1212.000
28.20000 1266.000
28.40000 1166.000
28.60000 1135.000
28.80000 1202.000
29.00000 1109.000
29.20000 1131.000
29.40000 1151.000
29.60000 1234.000
29.80000 1326.000
30.00000 1419.000
30.20000 1080.000
30.40000 1054.000
30.60000 1080.000
30.80000 1073.000
31.00000 998.000
31.20000 1075.000
31.40000 959.000
31.60000 1006.000
31.80000 928.000
32.00000 1030.000
32.20000 1010.000
32.40000 1007.000
32.60000 1022.000
32.80000 1046.000
33.00000 926.000
33.20000 886.000
33.40000 951.000
33.60000 858.000
33.80000 846.000
34.00000 814.000
34.20000 792.000
34.40000 754.000
34.60000 777.000
34.80000 747.000
35.00000 714.000
35.20000 709.000
35.40000 666.000
35.60000 750.000
35.80000 720.000
36.00000 654.000
36.20000 666.000
36.40000 634.000
36.60000 638.000
36.80000 672.000
37.00000 631.000
37.20000 588.000
37.40000 604.000
37.60000 611.000
37.80000 569.000
38.00000 542.000
38.20000 545.000
38.40000 546.000
38.60000 584.000
38.80000 556.000
39.00000 576.000
39.20000 591.000
39.40000 558.000
39.60000 529.000
39.80000 502.000
40.00000 520.000
40.20000 567.000
40.40000 575.000
40.60000 536.000
40.80000 563.000
41.00000 516.000
41.20000 538.000
41.40000 535.000
41.60000 524.000
41.80000 533.000
42.00000 543.000
42.20000 583.000
42.40000 639.000
42.60000 614.000
42.80000 636.000
43.00000 684.000
43.20000 731.000
43.40000 589.000
43.60000 532.000
43.80000 548.000
44.00000 517.000
44.20000 558.000
44.40000 554.000
44.60000 529.000
44.80000 529.000
45.00000 513.000
45.20000 534.000
45.40000 531.000
45.60000 565.000
45.80000 546.000
46.00000 541.000
46.20000 544.000
46.40000 509.000
46.60000 535.000
46.80000 472.000
47.00000 505.000
47.20000 475.000
47.40000 489.000
47.60000 483.000
47.80000 511.000
48.00000 467.000
48.20000 455.000
48.40000 448.000
48.60000 481.000
48.80000 447.000
49.00000 480.000
49.20000 495.000
49.40000 438.000
49.60000 463.000
49.80000 458.000
50.00000 475.000
50.20000 448.000
50.40000 444.000
50.60000 485.000
50.80000 505.000
51.00000 471.000
51.20000 491.000
51.40000 490.000
51.60000 494.000
51.80000 580.000
52.00000 605.000
52.20000 748.000
52.40000 622.000
52.60000 547.000
52.80000 491.000
53.00000 441.000
53.20000 488.000
53.40000 479.000
53.60000 473.000
53.80000 426.000
54.00000 467.000
54.20000 430.000
54.40000 456.000
54.60000 460.000
54.80000 462.000
55.00000 517.000
55.20000 439.000
55.40000 431.000
55.60000 418.000
55.80000 440.000
56.00000 464.000
56.20000 482.000
56.40000 428.000
56.60000 435.000
56.80000 435.000
57.00000 448.000
57.20000 434.000
57.40000 416.000
57.60000 434.000
57.80000 453.000
58.00000 434.000
58.20000 453.000
58.40000 475.000
58.60000 431.000
58.80000 452.000
59.00000 440.000
59.20000 445.000
59.40000 456.000
59.60000 440.000
59.80000 434.000
59.92000 501.000

File: 56.xy
5.00000 1432.000
5.20000 1365.000
5.40000 1320.000
5.60000 1301.000
5.80000 1245.000
6.00000 1238.000
6.20000 1178.000
6.40000 1168.000
6.60000 1079.000
6.80000 1093.000
7.00000 1002.000
7.20000 1041.000
7.40000 1032.000
7.60000 973.000
7.80000 928.000
8.00000 928.000
8.20000 942.000
8.40000 934.000
8.60000 969.000
8.80000 862.000
9.00000 855.000
9.20000 792.000
9.40000 785.000
9.60000 759.000
9.80000 785.000
10.00000 734.000
10.20000 702.000
10.40000 682.000
10.60000 758.000
10.80000 740.000
11.00000 706.000
11.20000 650.000
11.40000 669.000
11.60000 673.000
11.80000 705.000
12.00000 714.000
12.20000 724.000
12.40000 769.000
12.60000 718.000
12.80000 777.000
13.00000 704.000
13.20000 693.000
13.40000 702.000
13.60000 682.000
13.80000 680.000
14.00000 659.000
14.20000 712.000
14.40000 693.000
14.60000 738.000
14.80000 757.000
15.00000 782.000
15.20000 768.000
15.40000 776.000
15.60000 711.000
15.80000 737.000
16.00000 786.000
16.20000 804.000
16.40000 782.000
16.60000 819.000
16.80000 793.000
17.00000 906.000
17.20000 967.000
17.40000 999.000
17.60000 903.000
17.80000 875.000
18.00000 894.000
18.20000 843.000
18.40000 897.000
18.60000 925.000
18.80000 957.000
19.00000 957.000
19.20000 975.000
19.40000 988.000
19.60000 1007.000
19.80000 1076.000
20.00000 1015.000
20.20000 1084.000
20.40000 1081.000
20.60000 1157.000
20.80000 1128.000
21.00000 1197.000
21.20000 1339.000
21.40000 1353.000
21.60000 1199.000
21.80000 1220.000
22.00000 1190.000
22.20000 1218.000
22.40000 1237.000
22.60000 1253.000
22.80000 1260.000
23.00000 1354.000
23.20000 1315.000
23.40000 1234.000
23.60000 1309.000
23.80000 1345.000
24.00000 1208.000
24.20000 1294.000
24.40000 1357.000
24.60000 1346.000
24.80000 1349.000
25.00000 1332.000
25.20000 1316.000
25.40000 1312.000
25.60000 1429.000
25.80000 1590.000
26.00000 1810.000
26.20000 1890.000
26.40000 1519.000
26.60000 1350.000
26.80000 1291.000
27.00000 1279.000
27.20000 1140.000
27.40000 1239.000
27.60000 1285.000
27.80000 1264.000
28.00000 1256.000
28.20000 1234.000
28.40000 1152.000
28.60000 1079.000
28.80000 1250.000
29.00000 1255.000
29.20000 1158.000
29.40000 1180.000
29.60000 1139.000
29.80000 1103.000
30.00000 1239.000
30.20000 1257.000
30.40000 1453.000
30.60000 1238.000
30.80000 1185.000
31.00000 1044.000
31.20000 1055.000
31.40000 1022.000
31.60000 996.000
31.80000 962.000
32.00000 936.000
32.20000 938.000
32.40000 955.000
32.60000 908.000
32.80000 920.000
33.00000 975.000
33.20000 853.000
33.40000 872.000
33.60000 848.000
33.80000 802.000
34.00000 893.000
34.20000 825.000
34.40000 810.000
34.60000 743.000
34.80000 743.000
35.00000 770.000
35.20000 737.000
35.40000 698.000
35.60000 680.000
35.80000 675.000
36.00000 672.000
36.20000 654.000
36.40000 677.000
36.60000 668.000
36.80000 649.000
37.00000 633.000
37.20000 640.000
37.40000 642.000
37.60000 642.000
37.80000 602.000
38.00000 566.000
38.20000 561.000
38.40000 529.000
38.60000 568.000
38.80000 563.000
39.00000 528.000
39.20000 527.000
39.40000 539.000
39.60000 577.000
39.80000 538.000
40.00000 512.000
40.20000 534.000
40.40000 551.000
40.60000 527.000
40.80000 527.000
41.00000 518.000
41.20000 551.000
41.40000 559.000
41.60000 555.000
41.80000 540.000
42.00000 527.000
42.20000 543.000
42.40000 549.000
42.60000 527.000
42.80000 570.000
43.00000 591.000
43.20000 598.000
43.40000 692.000
43.60000 737.000
43.80000 648.000
44.00000 550.000
44.20000 566.000
44.40000 533.000
44.60000 529.000
44.80000 514.000
45.00000 528.000
45.20000 510.000
45.40000 516.000
45.60000 540.000
45.80000 529.000
46.00000 501.000
46.20000 538.000
46.40000 525.000
46.60000 537.000
46.80000 481.000
47.00000 482.000
47.20000 460.000
47.40000 462.000
47.60000 485.000
47.80000 461.000
48.00000 475.000
48.20000 506.000
48.40000 455.000
48.60000 469.000
48.80000 478.000
49.00000 477.000
49.20000 493.000
49.40000 458.000
49.60000 519.000
49.80000 461.000
50.00000 461.000
50.20000 456.000
50.40000 460.000
50.60000 498.000
50.80000 470.000
51.00000 465.000
51.20000 528.000
51.40000 488.000
51.60000 506.000
51.80000 468.000
52.00000 454.000
52.20000 435.000
52.40000 430.000
52.60000 470.000
52.80000 456.000
53.00000 450.000
53.20000 434.000
53.40000 483.000
53.60000 481.000
53.80000 484.000
54.00000 437.000
54.20000 447.000
54.40000 449.000
54.60000 422.000
54.80000 428.000
55.00000 428.000
55.20000 436.000
55.40000 445.000
55.60000 441.000
55.80000 479.000
56.00000 469.000
56.20000 423.000
56.40000 448.000
56.60000 406.000
56.80000 476.000
57.00000 421.000
57.20000 448.000
57.40000 433.000
57.60000 446.000
57.80000 450.000
58.00000 447.000
58.20000 456.000
58.40000 442.000
58.60000 444.000
58.80000 455.000
59.00000 452.000
59.20000 422.000
59.40000 457.000
59.60000 386.000
59.80000 412.000
59.92000 450.000