Folder: campaign1/XRD (part 5)

File: 23.xy
10.00000 812.000
10.20000 706.000
10.40000 637.000
10.60000 673.000
10.80000 660.000
11.00000 627.000
11.20000 648.000
11.40000 645.000
11.60000 613.000
11.80000 671.000
12.00000 649.000
12.20000 770.000
12.40000 821.000
12.60000 1937.000
12.80000 3709.000
13.00000 1747.000
13.20000 719.000
13.40000 850.000
13.60000 699.000
13.80000 714.000
14.00000 1120.000
14.20000 3439.000
14.40000 4556.000
14.60000 1054.000
14.80000 2011.000
15.00000 999.000
15.20000 545.000
15.40000 484.000
15.60000 465.000
15.80000 470.000
16.00000 427.000
16.20000 440.000
16.40000 447.000
16.60000 462.000
16.80000 431.000
17.00000 416.000
17.20000 411.000
17.40000 424.000
17.60000 436.000
17.80000 412.000
18.00000 453.000
18.20000 410.000
18.40000 421.000
18.60000 381.000
18.80000 400.000
19.00000 430.000
19.20000 425.000
19.40000 413.000
19.60000 516.000
19.80000 631.000
20.00000 621.000
20.20000 452.000
20.40000 423.000
20.60000 413.000
20.80000 395.000
21.00000 427.000
21.20000 474.000
21.40000 440.000
21.60000 434.000
21.80000 402.000
22.00000 436.000
22.20000 455.000
22.40000 440.000
22.60000 482.000
22.80000 426.000
23.00000 501.000
23.20000 451.000
23.40000 463.000
23.60000 446.000
23.80000 447.000
24.00000 504.000
24.20000 491.000
24.40000 524.000
24.60000 639.000
24.80000 718.000
25.00000 594.000
25.20000 699.000
25.40000 1083.000
25.60000 1830.000
25.80000 4356.000
26.00000 1084.000
26.20000 609.000
26.40000 655.000
26.60000 474.000
26.80000 463.000
27.00000 442.000
27.20000 447.000
27.40000 474.000
27.60000 409.000
27.80000 453.000
28.00000 447.000
28.20000 497.000
28.40000 460.000
28.60000 799.000
28.80000 1374.000
29.00000 522.000
29.20000 471.000
29.40000 451.000
29.60000 647.000
29.80000 1388.000
30.00000 739.000
30.20000 421.000
30.40000 386.000
30.60000 403.000
30.80000 410.000
31.00000 388.000
31.20000 367.000
31.40000 392.000
31.60000 376.000
31.80000 398.000
32.00000 424.000
32.20000 454.000
32.40000 387.000
32.60000 354.000
32.80000 332.000
33.00000 355.000
33.20000 392.000
33.40000 574.000
33.60000 412.000
33.80000 343.000
34.00000 321.000
34.20000 280.000
34.40000 306.000
34.60000 315.000
34.80000 310.000
35.00000 297.000
35.20000 340.000
35.40000 287.000
35.60000 295.000
35.80000 268.000
36.00000 251.000
36.20000 264.000
36.40000 305.000
36.60000 261.000
36.80000 241.000
37.00000 250.000
37.20000 249.000
37.40000 239.000
37.60000 246.000
37.80000 227.000
38.00000 221.000
38.20000 219.000
38.40000 252.000
38.60000 256.000
38.80000 293.000
39.00000 368.000
39.20000 269.000
39.40000 224.000
39.60000 226.000
39.80000 223.000
40.00000 232.000
40.20000 235.000
40.40000 232.000
40.60000 243.000
40.80000 255.000
41.00000 242.000
41.20000 203.000
41.40000 215.000
41.60000 179.000
41.80000 232.000
42.00000 216.000
42.20000 223.000
42.40000 281.000
42.60000 475.000
42.80000 324.000
43.00000 261.000
43.20000 212.000
43.40000 250.000
43.60000 228.000
43.80000 274.000
44.00000 256.000
44.20000 216.000
44.40000 254.000
44.60000 287.000
44.80000 261.000
45.00000 285.000
45.20000 330.000
45.40000 393.000
45.60000 276.000
45.80000 214.000
46.00000 206.000
46.20000 205.000
46.40000 190.000
46.60000 240.000
46.80000 229.000
47.00000 183.000
47.20000 175.000
47.40000 195.000
47.60000 205.000
47.80000 206.000
48.00000 196.000
48.20000 214.000
48.40000 264.000
48.60000 293.000
48.80000 224.000
49.00000 231.000
49.20000 218.000
49.40000 199.000
49.60000 204.000
49.80000 201.000
50.00000 253.000
50.20000 261.000
50.40000 420.000
50.60000 359.000
50.80000 253.000
51.00000 204.000
51.20000 202.000
51.40000 195.000
51.60000 226.000
51.80000 228.000
52.00000 230.000
52.20000 239.000
52.40000 215.000
52.60000 231.000
52.80000 232.000
53.00000 230.000
53.20000 218.000
53.40000 190.000
53.60000 189.000
53.80000 208.000
54.00000 166.000
54.20000 208.000
54.40000 219.000
54.60000 229.000
54.80000 233.000
55.00000 252.000
55.20000 244.000
55.40000 203.000
55.60000 197.000
55.80000 182.000
56.00000 190.000
56.20000 183.000
56.40000 204.000
56.60000 180.000
56.80000 197.000
57.00000 200.000
57.20000 222.000
57.40000 218.000
57.60000 204.000
57.80000 166.000
58.00000 191.000
58.20000 199.000
58.40000 179.000
58.60000 177.000
58.80000 161.000
59.00000 195.000
59.20000 188.000
59.40000 192.000
59.60000 187.000
59.80000 153.000
60.00000 151.000
60.20000 169.000
60.40000 200.000
60.60000 195.000
60.80000 175.000
61.00000 170.000
61.20000 160.000
61.40000 211.000
61.60000 199.000
61.80000 186.000
62.00000 179.000
62.20000 165.000
62.40000 170.000
62.60000 195.000
62.80000 162.000
63.00000 181.000
63.20000 163.000
63.40000 168.000
63.60000 172.000
63.80000 207.000
64.00000 189.000
64.20000 159.000
64.40000 165.000
64.60000 188.000
64.80000 176.000
65.00000 179.000
65.20000 200.000
65.40000 194.000
65.60000 165.000
65.80000 177.000
66.00000 186.000
66.20000 163.000
66.40000 170.000
66.60000 163.000
66.80000 196.000
67.00000 182.000
67.20000 238.000
67.40000 202.000
67.60000 172.000
67.80000 189.000
68.00000 182.000
68.20000 208.000
68.40000 177.000
68.60000 162.000
68.80000 185.000
69.00000 222.000
69.20000 215.000
69.40000 205.000
69.60000 187.000
69.80000 183.000
69.92000 192.000

File: 24.xy
10.00000 719.000
10.20000 694.000
10.40000 699.000
10.60000 675.000
10.80000 628.000
11.00000 641.000
11.20000 724.000
11.40000 633.000
11.60000 655.000
11.80000 641.000
12.00000 627.000
12.20000 642.000
12.40000 614.000
12.60000 706.000
12.80000 843.000
13.00000 845.000
13.20000 695.000
13.40000 783.000
13.60000 903.000
13.80000 1091.000
14.00000 2159.000
14.20000 12554.000
14.40000 21088.000
14.60000 3366.000
14.80000 5220.000
15.00000 2665.000
15.20000 1068.000
15.40000 744.000
15.60000 598.000
15.80000 587.000
16.00000 501.000
16.20000 488.000
16.40000 498.000
16.60000 433.000
16.80000 437.000
17.00000 466.000
17.20000 466.000
17.40000 488.000
17.60000 466.000
17.80000 455.000
18.00000 460.000
18.20000 433.000
18.40000 429.000
18.60000 457.000
18.80000 435.000
19.00000 489.000
19.20000 457.000
19.40000 469.000
19.60000 454.000
19.80000 537.000
20.00000 482.000
20.20000 489.000
20.40000 512.000
20.60000 506.000
20.80000 524.000
21.00000 476.000
21.20000 471.000
21.40000 522.000
21.60000 485.000
21.80000 508.000
22.00000 508.000
22.20000 523.000
22.40000 502.000
22.60000 495.000
22.80000 553.000
23.00000 518.000
23.20000 520.000
23.40000 588.000
23.60000 537.000
23.80000 560.000
24.00000 553.000
24.20000 532.000
24.40000 599.000
24.60000 633.000
24.80000 641.000
25.00000 598.000
25.20000 549.000
25.40000 559.000
25.60000 675.000
25.80000 817.000
26.00000 635.000
26.20000 575.000
26.40000 549.000
26.60000 540.000
26.80000 513.000
27.00000 554.000
27.20000 470.000
27.40000 484.000
27.60000 580.000
27.80000 556.000
28.00000 584.000
28.20000 575.000
28.40000 625.000
28.60000 1637.000
28.80000 3562.000
29.00000 789.000
29.20000 636.000
29.40000 696.000
29.60000 850.000
29.80000 1179.000
30.00000 904.000
30.20000 604.000
30.40000 504.000
30.60000 484.000
30.80000 435.000
31.00000 411.000
31.20000 496.000
31.40000 444.000
31.60000 435.000
31.80000 402.000
32.00000 474.000
32.20000 791.000
32.40000 505.000
32.60000 435.000
32.80000 381.000
33.00000 404.000
33.20000 428.000
33.40000 486.000
33.60000 408.000
33.80000 376.000
34.00000 306.000
34.20000 301.000
34.40000 284.000
34.60000 318.000
34.80000 316.000
35.00000 325.000
35.20000 343.000
35.40000 268.000
35.60000 299.000
35.80000 274.000
36.00000 264.000
36.20000 287.000
36.40000 307.000
36.60000 265.000
36.80000 288.000
37.00000 283.000
37.20000 247.000
37.40000 304.000
37.60000 265.000
37.80000 275.000
38.00000 305.000
38.20000 284.000
38.40000 313.000
38.60000 321.000
38.80000 365.000
39.00000 395.000
39.20000 365.000
39.40000 279.000
39.60000 275.000
39.80000 240.000
40.00000 234.000
40.20000 232.000
40.40000 245.000
40.60000 225.000
40.80000 214.000
41.00000 287.000
41.20000 240.000
41.40000 222.000
41.60000 214.000
41.80000 230.000
42.00000 247.000
42.20000 241.000
42.40000 258.000
42.60000 286.000
42.80000 289.000
43.00000 234.000
43.20000 228.000
43.40000 221.000
43.60000 306.000
43.80000 260.000
44.00000 239.000
44.20000 213.000
44.40000 242.000
44.60000 233.000
44.80000 255.000
45.00000 237.000
45.20000 247.000
45.40000 247.000
45.60000 265.000
45.80000 212.000
46.00000 211.000
46.20000 211.000
46.40000 208.000
46.60000 238.000
46.80000 234.000
47.00000 204.000
47.20000 251.000
47.40000 236.000
47.60000 177.000
47.80000 216.000
48.00000 237.000
48.20000 265.000
48.40000 526.000
48.60000 627.000
48.80000 293.000
49.00000 249.000
49.20000 229.000
49.40000 255.000
49.60000 256.000
49.80000 253.000
50.00000 246.000
50.20000 324.000
50.40000 384.000
50.60000 325.000
50.80000 336.000
51.00000 250.000
51.20000 238.000
51.40000 195.000
51.60000 221.000
51.80000 229.000
52.00000 195.000
52.20000 188.000
52.40000 212.000
52.60000 190.000
52.80000 216.000
53.00000 255.000
53.20000 241.000
53.40000 234.000
53.60000 206.000
53.80000 204.000
54.00000 206.000
54.20000 204.000
54.40000 181.000
54.60000 197.000
54.80000 235.000
55.00000 209.000
55.20000 192.000
55.40000 191.000
55.60000 190.000
55.80000 176.000
56.00000 208.000
56.20000 171.000
56.40000 180.000
56.60000 204.000
56.80000 184.000
57.00000 176.000
57.20000 175.000
57.40000 190.000
57.60000 184.000
57.80000 182.000
58.00000 176.000
58.20000 158.000
58.40000 192.000
58.60000 179.000
58.80000 178.000
59.00000 180.000
59.20000 188.000
59.40000 198.000
59.60000 170.000
59.80000 166.000
60.00000 162.000
60.20000 185.000
60.40000 172.000
60.60000 181.000
60.80000 164.000
61.00000 181.000
61.20000 173.000
61.40000 196.000
61.60000 192.000
61.80000 201.000
62.00000 199.000
62.20000 154.000
62.40000 161.000
62.60000 163.000
62.80000 171.000
63.00000 182.000
63.20000 193.000
63.40000 167.000
63.60000 157.000
63.80000 166.000
64.00000 158.000
64.20000 174.000
64.40000 174.000
64.60000 161.000
64.80000 143.000
65.00000 158.000
65.20000 185.000
65.40000 148.000
65.60000 185.000
65.80000 172.000
66.00000 154.000
66.20000 155.000
66.40000 150.000
66.60000 177.000
66.80000 172.000
67.00000 246.000
67.20000 352.000
67.40000 286.000
67.60000 189.000
67.80000 181.000
68.00000 193.000
68.20000 181.000
68.40000 193.000
68.60000 183.000
68.80000 207.000
69.00000 311.000
69.20000 337.000
69.40000 255.000
69.60000 170.000
69.80000 184.000
69.92000 174.000

File: 25.xy
10.00000 941.000
10.20000 685.000
10.40000 680.000
10.60000 696.000
10.80000 662.000
11.00000 605.000
11.20000 676.000
11.40000 661.000
11.60000 605.000
11.80000 631.000
12.00000 613.000
12.20000 690.000
12.40000 768.000
12.60000 1191.000
12.80000 2240.000
13.00000 1412.000
13.20000 798.000
13.40000 994.000
13.60000 952.000
13.80000 1075.000
14.00000 1800.000
14.20000 7504.000
14.40000 13462.000
14.60000 2717.000
14.80000 6888.000
15.00000 3137.000
15.20000 926.000
15.40000 665.000
15.60000 589.000
15.80000 556.000
16.00000 519.000
16.20000 465.000
16.40000 478.000
16.60000 493.000
16.80000 478.000
17.00000 442.000
17.20000 477.000
17.40000 411.000
17.60000 423.000
17.80000 449.000
18.00000 450.000
18.20000 476.000
18.40000 429.000
18.60000 444.000
18.80000 442.000
19.00000 411.000
19.20000 467.000
19.40000 475.000
19.60000 511.000
19.80000 610.000
20.00000 549.000
20.20000 465.000
20.40000 426.000
20.60000 453.000
20.80000 483.000
21.00000 447.000
21.20000 491.000
21.40000 480.000
21.60000 494.000
21.80000 487.000
22.00000 515.000
22.20000 473.000
22.40000 469.000
22.60000 489.000
22.80000 496.000
23.00000 513.000
23.20000 482.000
23.40000 508.000
23.60000 469.000
23.80000 490.000
24.00000 546.000
24.20000 524.000
24.40000 540.000
24.60000 669.000
24.80000 664.000
25.00000 564.000
25.20000 575.000
25.40000 693.000
25.60000 1056.000
25.80000 1770.000
26.00000 832.000
26.20000 582.000
26.40000 593.000
26.60000 516.000
26.80000 489.000
27.00000 496.000
27.20000 485.000
27.40000 466.000
27.60000 529.000
27.80000 535.000
28.00000 524.000
28.20000 557.000
28.40000 597.000
28.60000 1311.000
28.80000 2805.000
29.00000 800.000
29.20000 624.000
29.40000 623.000
29.60000 855.000
29.80000 1907.000
30.00000 1149.000
30.20000 595.000
30.40000 544.000
30.60000 469.000
30.80000 434.000
31.00000 437.000
31.20000 398.000
31.40000 424.000
31.60000 441.000
31.80000 448.000
32.00000 382.000
32.20000 553.000
32.40000 435.000
32.60000 428.000
32.80000 397.000
33.00000 339.000
33.20000 417.000
33.40000 554.000
33.60000 466.000
33.80000 358.000
34.00000 341.000
34.20000 347.000
34.40000 324.000
34.60000 321.000
34.80000 338.000
35.00000 342.000
35.20000 297.000
35.40000 306.000
35.60000 275.000
35.80000 318.000
36.00000 297.000
36.20000 277.000
36.40000 281.000
36.60000 289.000
36.80000 302.000
37.00000 310.000
37.20000 275.000
37.40000 265.000
37.60000 269.000
37.80000 261.000
38.00000 268.000
38.20000 281.000
38.40000 269.000
38.60000 272.000
38.80000 362.000
39.00000 501.000
39.20000 418.000
39.40000 257.000
39.60000 241.000
39.80000 241.000
40.00000 245.000
40.20000 247.000
40.40000 229.000
40.60000 270.000
40.80000 270.000
41.00000 221.000
41.20000 221.000
41.40000 227.000
41.60000 240.000
41.80000 214.000
42.00000 251.000
42.20000 253.000
42.40000 263.000
42.60000 414.000
42.80000 371.000
43.00000 257.000
43.20000 249.000
43.40000 255.000
43.60000 239.000
43.80000 267.000
44.00000 259.000
44.20000 263.000
44.40000 240.000
44.60000 228.000
44.80000 281.000
45.00000 241.000
45.20000 283.000
45.40000 310.000
45.60000 250.000
45.80000 242.000
46.00000 212.000
46.20000 197.000
46.40000 241.000
46.60000 211.000
46.80000 217.000
47.00000 221.000
47.20000 243.000
47.40000 214.000
47.60000 202.000
47.80000 239.000
48.00000 209.000
48.20000 239.000
48.40000 300.000
48.60000 357.000
48.80000 289.000
49.00000 222.000
49.20000 236.000
49.40000 230.000
49.60000 227.000
49.80000 232.000
50.00000 249.000
50.20000 324.000
50.40000 434.000
50.60000 433.000
50.80000 286.000
51.00000 234.000
51.20000 235.000
51.40000 212.000
51.60000 225.000
51.80000 218.000
52.00000 211.000
52.20000 208.000
52.40000 209.000
52.60000 212.000
52.80000 211.000
53.00000 232.000
53.20000 212.000
53.40000 234.000
53.60000 202.000
53.80000 189.000
54.00000 172.000
54.20000 212.000
54.40000 206.000
54.60000 240.000
54.80000 208.000
55.00000 208.000
55.20000 219.000
55.40000 187.000
55.60000 205.000
55.80000 200.000
56.00000 184.000
56.20000 199.000
56.40000 181.000
56.60000 178.000
56.80000 214.000
57.00000 203.000
57.20000 185.000
57.40000 210.000
57.60000 153.000
57.80000 168.000
58.00000 155.000
58.20000 164.000
58.40000 181.000
58.60000 209.000
58.80000 163.000
59.00000 181.000
59.20000 159.000
59.40000 151.000
59.60000 181.000
59.80000 156.000
60.00000 172.000
60.20000 173.000
60.40000 142.000
60.60000 162.000
60.80000 164.000
61.00000 165.000
61.20000 173.000
61.40000 175.000
61.60000 178.000
61.80000 145.000
62.00000 185.000
62.20000 169.000
62.40000 152.000
62.60000 155.000
62.80000 178.000
63.00000 154.000
63.20000 157.000
63.40000 176.000
63.60000 181.000
63.80000 172.000
64.00000 155.000
64.20000 171.000
64.40000 163.000
64.60000 158.000
64.80000 155.000
65.00000 159.000
65.20000 151.000
65.40000 170.000
65.60000 157.000
65.80000 170.000
66.00000 149.000
66.20000 135.000
66.40000 159.000
66.60000 139.000
66.80000 154.000
67.00000 189.000
67.20000 251.000
67.40000 234.000
67.60000 219.000
67.80000 180.000
68.00000 166.000
68.20000 218.000
68.40000 173.000
68.60000 191.000
68.80000 179.000
69.00000 259.000
69.20000 234.000
69.40000 213.000
69.60000 198.000
69.80000 183.000
69.92000 165.000

File: 26.xy
5.00000 605.000
5.20000 564.000
5.40000 586.000
5.60000 545.000
5.80000 527.000
6.00000 535.000
6.20000 475.000
6.40000 481.000
6.60000 495.000
6.80000 474.000
7.00000 435.000
7.20000 444.000
7.40000 440.000
7.60000 401.000
7.80000 406.000
8.00000 393.000
8.20000 357.000
8.40000 373.000
8.60000 366.000
8.80000 327.000
9.00000 314.000
9.20000 378.000
9.40000 351.000
9.60000 303.000
9.80000 300.000
10.00000 317.000
10.20000 305.000
10.40000 280.000
10.60000 285.000
10.80000 309.000
11.00000 275.000
11.20000 272.000
11.40000 262.000
11.60000 268.000
11.80000 289.000
12.00000 279.000
12.20000 275.000
12.40000 293.000
12.60000 376.000
12.80000 450.000
13.00000 402.000
13.20000 453.000
13.40000 573.000
13.60000 935.000
13.80000 1436.000
14.00000 5372.000
14.20000 24392.000
14.40000 1510.000
14.60000 474.000
14.80000 379.000
15.00000 315.000
15.20000 284.000
15.40000 242.000
15.60000 211.000
15.80000 242.000
16.00000 221.000
16.20000 223.000
16.40000 218.000
16.60000 167.000
16.80000 193.000
17.00000 192.000
17.20000 214.000
17.40000 179.000
17.60000 204.000
17.80000 202.000
18.00000 183.000
18.20000 174.000
18.40000 171.000
18.60000 186.000
18.80000 200.000
19.00000 164.000
19.20000 174.000
19.40000 199.000
19.60000 206.000
19.80000 200.000
20.00000 186.000
20.20000 202.000
20.40000 171.000
20.60000 168.000
20.80000 183.000
21.00000 181.000
21.20000 193.000
21.40000 199.000
21.60000 226.000
21.80000 206.000
22.00000 209.000
22.20000 179.000
22.40000 206.000
22.60000 202.000
22.80000 219.000
23.00000 242.000
23.20000 239.000
23.40000 235.000
23.60000 243.000
23.80000 223.000
24.00000 221.000
24.20000 220.000
24.40000 296.000
24.60000 572.000
24.80000 517.000
25.00000 221.000
25.20000 191.000
25.40000 193.000
25.60000 211.000
25.80000 244.000
26.00000 190.000
26.20000 190.000
26.40000 188.000
26.60000 188.000
26.80000 183.000
27.00000 199.000
27.20000 192.000
27.40000 231.000
27.60000 191.000
27.80000 188.000
28.00000 181.000
28.20000 239.000
28.40000 890.000
28.60000 4319.000
28.80000 791.000
29.00000 210.000
29.20000 172.000
29.40000 162.000
29.60000 176.000
29.80000 166.000
30.00000 158.000
30.20000 129.000
30.40000 122.000
30.60000 149.000
30.80000 147.000
31.00000 146.000
31.20000 160.000
31.40000 145.000
31.60000 181.000
31.80000 264.000
32.00000 887.000
32.20000 844.000
32.40000 164.000
32.60000 120.000
32.80000 133.000
33.00000 121.000
33.20000 102.000
33.40000 107.000
33.60000 99.000
33.80000 98.000
34.00000 91.000
34.20000 83.000
34.40000 96.000
34.60000 105.000
34.80000 87.000
35.00000 95.000
35.20000 116.000
35.40000 111.000
35.60000 78.000
35.80000 87.000
36.00000 80.000
36.20000 80.000
36.40000 92.000
36.60000 90.000
36.80000 97.000
37.00000 80.000
37.20000 88.000
37.40000 75.000
37.60000 82.000
37.80000 91.000
38.00000 89.000
38.20000 56.000
38.40000 80.000
38.60000 78.000
38.80000 77.000
39.00000 104.000
39.20000 84.000
39.40000 91.000
39.60000 89.000
39.80000 72.000
40.00000 67.000
40.20000 58.000
40.40000 66.000
40.60000 94.000
40.80000 248.000
41.00000 541.000
41.20000 139.000
41.40000 75.000
41.60000 88.000
41.80000 84.000
42.00000 80.000
42.20000 85.000
42.40000 75.000
42.60000 78.000
42.80000 78.000
43.00000 91.000
43.20000 78.000
43.40000 168.000
43.60000 416.000
43.80000 134.000
44.00000 69.000
44.20000 77.000
44.40000 59.000
44.60000 79.000
44.80000 76.000
45.00000 72.000
45.20000 73.000
45.40000 75.000
45.60000 56.000
45.80000 78.000
46.00000 93.000
46.20000 79.000
46.40000 84.000
46.60000 76.000
46.80000 49.000
47.00000 81.000
47.20000 76.000
47.40000 66.000
47.60000 76.000
47.80000 72.000
48.00000 64.000
48.20000 89.000
48.40000 358.000
48.60000 240.000
48.80000 70.000
49.00000 58.000
49.20000 53.000
49.40000 62.000
49.60000 71.000
49.80000 53.000
50.00000 80.000
50.20000 64.000
50.40000 56.000
50.60000 105.000
50.80000 137.000
51.00000 76.000
51.20000 63.000
51.40000 55.000
51.60000 61.000
51.80000 56.000
52.00000 60.000
52.20000 65.000
52.40000 64.000
52.60000 54.000
52.80000 71.000
53.00000 138.000
53.20000 73.000
53.40000 60.000
53.60000 58.000
53.80000 51.000
54.00000 57.000
54.20000 41.000
54.40000 43.000
54.60000 47.000
54.80000 56.000
55.00000 62.000
55.20000 44.000
55.40000 48.000
55.60000 43.000
55.80000 46.000
56.00000 45.000
56.20000 47.000
56.40000 56.000
56.60000 43.000
56.80000 46.000
57.00000 47.000
57.20000 56.000
57.40000 59.000
57.60000 47.000
57.80000 47.000
58.00000 47.000
58.20000 53.000
58.40000 51.000
58.60000 57.000
58.80000 57.000
59.00000 45.000
59.20000 54.000
59.40000 67.000
59.60000 47.000
59.80000 33.000
59.92000 60.000

File: 27.xy
5.00000 636.000
5.20000 617.000
5.40000 598.000
5.60000 608.000
5.80000 491.000
6.00000 525.000
6.20000 516.000
6.40000 499.000
6.60000 475.000
6.80000 478.000
7.00000 463.000
7.20000 453.000
7.40000 417.000
7.60000 415.000
7.80000 431.000
8.00000 411.000
8.20000 358.000
8.40000 338.000
8.60000 380.000
8.80000 340.000
9.00000 330.000
9.20000 381.000
9.40000 327.000
9.60000 345.000
9.80000 348.000
10.00000 315.000
10.20000 317.000
10.40000 313.000
10.60000 297.000
10.80000 298.000
11.00000 298.000
11.20000 326.000
11.40000 281.000
11.60000 301.000
11.80000 341.000
12.00000 323.000
12.20000 316.000
12.40000 336.000
12.60000 362.000
12.80000 502.000
13.00000 429.000
13.20000 471.000
13.40000 659.000
13.60000 1497.000
13.80000 1886.000
14.00000 6334.000
14.20000 44955.000
14.40000 9428.000
14.60000 888.000
14.80000 534.000
15.00000 381.000
15.20000 342.000
15.40000 281.000
15.60000 276.000
15.80000 237.000
16.00000 225.000
16.20000 226.000
16.40000 209.000
16.60000 208.000
16.80000 212.000
17.00000 227.000
17.20000 170.000
17.40000 210.000
17.60000 194.000
17.80000 219.000
18.00000 173.000
18.20000 196.000
18.40000 193.000
18.60000 184.000
18.80000 218.000
19.00000 194.000
19.20000 199.000
19.40000 205.000
19.60000 208.000
19.80000 190.000
20.00000 208.000
20.20000 228.000
20.40000 188.000
20.60000 180.000
20.80000 205.000
21.00000 209.000
21.20000 214.000
21.40000 200.000
21.60000 198.000
21.80000 228.000
22.00000 243.000
22.20000 190.000
22.40000 195.000
22.60000 241.000
22.80000 224.000
23.00000 202.000
23.20000 239.000
23.40000 242.000
23.60000 216.000
23.80000 226.000
24.00000 221.000
24.20000 250.000
24.40000 247.000
24.60000 277.000
24.80000 461.000
25.00000 273.000
25.20000 223.000
25.40000 225.000
25.60000 246.000
25.80000 261.000
26.00000 236.000
26.20000 232.000
26.40000 233.000
26.60000 250.000
26.80000 218.000
27.00000 225.000
27.20000 228.000
27.40000 289.000
27.60000 283.000
27.80000 302.000
28.00000 269.000
28.20000 288.000
28.40000 517.000
28.60000 2366.000
28.80000 7956.000
29.00000 738.000
29.20000 246.000
29.40000 204.000
29.60000 188.000
29.80000 176.000
30.00000 166.000
30.20000 160.000
30.40000 171.000
30.60000 162.000
30.80000 134.000
31.00000 162.000
31.20000 145.000
31.40000 156.000
31.60000 157.000
31.80000 194.000
32.00000 344.000
32.20000 1459.000
32.40000 627.000
32.60000 163.000
32.80000 122.000
33.00000 106.000
33.20000 100.000
33.40000 113.000
33.60000 103.000
33.80000 95.000
34.00000 92.000
34.20000 94.000
34.40000 86.000
34.60000 106.000
34.80000 99.000
35.00000 90.000
35.20000 102.000
35.40000 103.000
35.60000 102.000
35.80000 100.000
36.00000 93.000
36.20000 90.000
36.40000 85.000
36.60000 81.000
36.80000 104.000
37.00000 93.000
37.20000 90.000
37.40000 76.000
37.60000 87.000
37.80000 105.000
38.00000 82.000
38.20000 103.000
38.40000 74.000
38.60000 91.000
38.80000 73.000
39.00000 72.000
39.20000 84.000
39.40000 66.000
39.60000 85.000
39.80000 85.000
40.00000 72.000
40.20000 73.000
40.40000 82.000
40.60000 87.000
40.80000 94.000
41.00000 134.000
41.20000 262.000
41.40000 77.000
41.60000 93.000
41.80000 68.000
42.00000 72.000
42.20000 88.000
42.40000 89.000
42.60000 80.000
42.80000 84.000
43.00000 88.000
43.20000 84.000
43.40000 78.000
43.60000 91.000
43.80000 216.000
44.00000 91.000
44.20000 73.000
44.40000 85.000
44.60000 74.000
44.80000 76.000
45.00000 90.000
45.20000 73.000
45.40000 73.000
45.60000 81.000
45.80000 68.000
46.00000 60.000
46.20000 81.000
46.40000 87.000
46.60000 81.000
46.80000 78.000
47.00000 79.000
47.20000 83.000
47.40000 79.000
47.60000 80.000
47.80000 77.000
48.00000 72.000
48.20000 81.000
48.40000 91.000
48.60000 235.000
48.80000 287.000
49.00000 80.000
49.20000 81.000
49.40000 63.000
49.60000 77.000
49.80000 65.000
50.00000 60.000
50.20000 63.000
50.40000 58.000
50.60000 67.000
50.80000 70.000
51.00000 109.000
51.20000 83.000
51.40000 49.000
51.60000 76.000
51.80000 72.000
52.00000 69.000
52.20000 66.000
52.40000 60.000
52.60000 72.000
52.80000 60.000
53.00000 68.000
53.20000 189.000
53.40000 115.000
53.60000 50.000
53.80000 62.000
54.00000 58.000
54.20000 67.000
54.40000 51.000
54.60000 64.000
54.80000 40.000
55.00000 56.000
55.20000 61.000
55.40000 86.000
55.60000 74.000
55.80000 50.000
56.00000 58.000
56.20000 56.000
56.40000 60.000
56.60000 68.000
56.80000 55.000
57.00000 52.000
57.20000 60.000
57.40000 53.000
57.60000 67.000
57.80000 50.000
58.00000 50.000
58.20000 53.000
58.40000 44.000
58.60000 40.000
58.80000 50.000
59.00000 62.000
59.20000 40.000
59.40000 55.000
59.60000 60.000
59.80000 68.000
59.92000 47.000