Folder: campaign1/XRD (part 4)

File: 17.xy
5.00000 1148.000
5.20000 1118.000
5.40000 1007.000
5.60000 1021.000
5.80000 977.000
6.00000 917.000
6.20000 912.000
6.40000 892.000
6.60000 875.000
6.80000 775.000
7.00000 783.000
7.20000 758.000
7.40000 766.000
7.60000 752.000
7.80000 752.000
8.00000 690.000
8.20000 731.000
8.40000 685.000
8.60000 644.000
8.80000 625.000
9.00000 594.000
9.20000 656.000
9.40000 626.000
9.60000 616.000
9.80000 595.000
10.00000 626.000
10.20000 601.000
10.40000 536.000
10.60000 563.000
10.80000 566.000
11.00000 574.000
11.20000 544.000
11.40000 558.000
11.60000 616.000
11.80000 608.000
12.00000 613.000
12.20000 611.000
12.40000 677.000
12.60000 749.000
12.80000 803.000
13.00000 971.000
13.20000 1156.000
13.40000 1560.000
13.60000 1153.000
13.80000 1228.000
14.00000 1817.000
14.20000 3148.000
14.40000 5785.000
14.60000 43479.000
14.80000 422538.000
15.00000 37206.000
15.20000 7154.000
15.40000 3847.000
15.60000 1983.000
15.80000 1323.000
16.00000 1053.000
16.20000 844.000
16.40000 775.000
16.60000 634.000
16.80000 646.000
17.00000 637.000
17.20000 607.000
17.40000 616.000
17.60000 624.000
17.80000 645.000
18.00000 615.000
18.20000 625.000
18.40000 620.000
18.60000 602.000
18.80000 674.000
19.00000 656.000
19.20000 663.000
19.40000 713.000
19.60000 725.000
19.80000 657.000
20.00000 754.000
20.20000 780.000
20.40000 752.000
20.60000 879.000
20.80000 1162.000
21.00000 1629.000
21.20000 868.000
21.40000 814.000
21.60000 799.000
21.80000 857.000
22.00000 824.000
22.20000 839.000
22.40000 905.000
22.60000 863.000
22.80000 814.000
23.00000 827.000
23.20000 831.000
23.40000 832.000
23.60000 902.000
23.80000 885.000
24.00000 839.000
24.20000 883.000
24.40000 772.000
24.60000 826.000
24.80000 840.000
25.00000 846.000
25.20000 857.000
25.40000 900.000
25.60000 878.000
25.80000 924.000
26.00000 860.000
26.20000 873.000
26.40000 892.000
26.60000 1008.000
26.80000 1128.000
27.00000 985.000
27.20000 922.000
27.40000 958.000
27.60000 916.000
27.80000 939.000
28.00000 970.000
28.20000 1037.000
28.40000 1203.000
28.60000 1582.000
28.80000 1476.000
29.00000 1682.000
29.20000 2410.000
29.40000 5622.000
29.60000 33621.000
29.80000 187727.300
30.00000 58800.000
30.20000 6296.000
30.40000 3487.000
30.60000 2657.000
30.80000 2232.000
31.00000 1745.000
31.20000 1447.000
31.40000 1231.000
31.60000 988.000
31.80000 885.000
32.00000 827.000
32.20000 757.000
32.40000 756.000
32.60000 776.000
32.80000 714.000
33.00000 699.000
33.20000 921.000
33.40000 1495.000
33.60000 1015.000
33.80000 637.000
34.00000 592.000
34.20000 607.000
34.40000 536.000
34.60000 581.000
34.80000 573.000
35.00000 550.000
35.20000 529.000
35.40000 500.000
35.60000 495.000
35.80000 533.000
36.00000 482.000
36.20000 551.000
36.40000 516.000
36.60000 586.000
36.80000 608.000
37.00000 456.000
37.20000 396.000
37.40000 443.000
37.60000 453.000
37.80000 427.000
38.00000 428.000
38.20000 382.000
38.40000 412.000
38.60000 402.000
38.80000 360.000
39.00000 384.000
39.20000 376.000
39.40000 450.000
39.60000 365.000
39.80000 363.000
40.00000 390.000
40.20000 395.000
40.40000 377.000
40.60000 394.000
40.80000 438.000
41.00000 391.000
41.20000 377.000
41.40000 392.000
41.60000 425.000
41.80000 390.000
42.00000 400.000
42.20000 417.000
42.40000 508.000
42.60000 753.000
42.80000 755.000
43.00000 483.000
43.20000 417.000
43.40000 397.000
43.60000 395.000
43.80000 422.000
44.00000 420.000
44.20000 414.000
44.40000 414.000
44.60000 491.000
44.80000 538.000
45.00000 807.000
45.20000 2534.000
45.40000 7634.000
45.60000 4137.000
45.80000 968.000
46.00000 591.000
46.20000 479.000
46.40000 415.000
46.60000 409.000
46.80000 423.000
47.00000 414.000
47.20000 409.000
47.40000 385.000
47.60000 359.000
47.80000 382.000
48.00000 382.000
48.20000 351.000
48.40000 354.000
48.60000 390.000
48.80000 365.000
49.00000 287.000
49.20000 402.000
49.40000 325.000
49.60000 310.000
49.80000 337.000
50.00000 306.000
50.20000 321.000
50.40000 300.000
50.60000 312.000
50.80000 302.000
51.00000 298.000
51.20000 331.000
51.40000 304.000
51.60000 324.000
51.80000 327.000
52.00000 310.000
52.20000 331.000
52.40000 350.000
52.60000 316.000
52.80000 368.000
53.00000 373.000
53.20000 312.000
53.40000 321.000
53.60000 318.000
53.80000 311.000
54.00000 292.000
54.20000 320.000
54.40000 299.000
54.60000 329.000
54.80000 327.000
55.00000 332.000
55.20000 323.000
55.40000 390.000
55.60000 292.000
55.80000 329.000
56.00000 309.000
56.20000 298.000
56.40000 302.000
56.60000 304.000
56.80000 325.000
57.00000 310.000
57.20000 327.000
57.40000 345.000
57.60000 347.000
57.80000 329.000
58.00000 372.000
58.20000 324.000
58.40000 338.000
58.60000 341.000
58.80000 338.000
59.00000 350.000
59.20000 304.000
59.40000 351.000
59.60000 364.000
59.80000 358.000
59.92000 352.000

File: 18.xy
5.00000 1177.000
5.20000 1159.000
5.40000 997.000
5.60000 1025.000
5.80000 974.000
6.00000 967.000
6.20000 926.000
6.40000 840.000
6.60000 889.000
6.80000 803.000
7.00000 803.000
7.20000 775.000
7.40000 764.000
7.60000 756.000
7.80000 744.000
8.00000 651.000
8.20000 694.000
8.40000 672.000
8.60000 698.000
8.80000 595.000
9.00000 626.000
9.20000 614.000
9.40000 673.000
9.60000 633.000
9.80000 608.000
10.00000 620.000
10.20000 556.000
10.40000 567.000
10.60000 596.000
10.80000 544.000
11.00000 543.000
11.20000 576.000
11.40000 555.000
11.60000 620.000
11.80000 643.000
12.00000 675.000
12.20000 621.000
12.40000 676.000
12.60000 705.000
12.80000 785.000
13.00000 1106.000
13.20000 1747.000
13.40000 1306.000
13.60000 1294.000
13.80000 1695.000
14.00000 3290.000
14.20000 4740.000
14.40000 20342.000
14.60000 289127.000
14.80000 229164.500
15.00000 18312.000
15.20000 7395.000
15.40000 3655.000
15.60000 1890.000
15.80000 1317.000
16.00000 1058.000
16.20000 830.000
16.40000 769.000
16.60000 733.000
16.80000 692.000
17.00000 646.000
17.20000 666.000
17.40000 671.000
17.60000 649.000
17.80000 607.000
18.00000 655.000
18.20000 621.000
18.40000 660.000
18.60000 652.000
18.80000 649.000
19.00000 624.000
19.20000 623.000
19.40000 698.000
19.60000 692.000
19.80000 620.000
20.00000 697.000
20.20000 717.000
20.40000 788.000
20.60000 971.000
20.80000 1485.000
21.00000 868.000
21.20000 763.000
21.40000 773.000
21.60000 855.000
21.80000 796.000
22.00000 808.000
22.20000 867.000
22.40000 888.000
22.60000 841.000
22.80000 822.000
23.00000 844.000
23.20000 889.000
23.40000 776.000
23.60000 821.000
23.80000 820.000
24.00000 842.000
24.20000 914.000
24.40000 878.000
24.60000 871.000
24.80000 873.000
25.00000 872.000
25.20000 881.000
25.40000 875.000
25.60000 940.000
25.80000 872.000
26.00000 885.000
26.20000 915.000
26.40000 1099.000
26.60000 1396.000
26.80000 1279.000
27.00000 970.000
27.20000 973.000
27.40000 1063.000
27.60000 994.000
27.80000 1061.000
28.00000 1140.000
28.20000 1666.000
28.40000 1948.000
28.60000 1804.000
28.80000 2031.000
29.00000 3073.000
29.20000 7788.000
29.40000 53939.000
29.60000 353802.700
29.80000 85130.000
30.00000 10183.000
30.20000 5189.000
30.40000 3849.000
30.60000 3116.000
30.80000 2392.000
31.00000 1820.000
31.20000 1527.000
31.40000 1235.000
31.60000 1048.000
31.80000 988.000
32.00000 907.000
32.20000 746.000
32.40000 813.000
32.60000 767.000
32.80000 749.000
33.00000 1057.000
33.20000 1864.000
33.40000 896.000
33.60000 704.000
33.80000 640.000
34.00000 651.000
34.20000 593.000
34.40000 565.000
34.60000 565.000
34.80000 559.000
35.00000 507.000
35.20000 504.000
35.40000 505.000
35.60000 503.000
35.80000 525.000
36.00000 482.000
36.20000 605.000
36.40000 637.000
36.60000 570.000
36.80000 455.000
37.00000 442.000
37.20000 395.000
37.40000 414.000
37.60000 415.000
37.80000 390.000
38.00000 416.000
38.20000 376.000
38.40000 381.000
38.60000 382.000
38.80000 378.000
39.00000 366.000
39.20000 377.000
39.40000 370.000
39.60000 374.000
39.80000 368.000
40.00000 357.000
40.20000 413.000
40.40000 416.000
40.60000 443.000
40.80000 398.000
41.00000 348.000
41.20000 394.000
41.40000 399.000
41.60000 413.000
41.80000 399.000
42.00000 466.000
42.20000 550.000
42.40000 742.000
42.60000 462.000
42.80000 418.000
43.00000 413.000
43.20000 421.000
43.40000 410.000
43.60000 433.000
43.80000 415.000
44.00000 485.000
44.20000 474.000
44.40000 511.000
44.60000 739.000
44.80000 2148.000
45.00000 10439.000
45.20000 9041.000
45.40000 2038.000
45.60000 730.000
45.80000 572.000
46.00000 523.000
46.20000 485.000
46.40000 452.000
46.60000 458.000
46.80000 439.000
47.00000 430.000
47.20000 396.000
47.40000 410.000
47.60000 390.000
47.80000 376.000
48.00000 369.000
48.20000 357.000
48.40000 329.000
48.60000 329.000
48.80000 370.000
49.00000 341.000
49.20000 328.000
49.40000 309.000
49.60000 357.000
49.80000 301.000
50.00000 326.000
50.20000 336.000
50.40000 326.000
50.60000 330.000
50.80000 324.000
51.00000 344.000
51.20000 296.000
51.40000 318.000
51.60000 298.000
51.80000 294.000
52.00000 337.000
52.20000 318.000
52.40000 326.000
52.60000 358.000
52.80000 358.000
53.00000 303.000
53.20000 313.000
53.40000 297.000
53.60000 317.000
53.80000 317.000
54.00000 310.000
54.20000 321.000
54.40000 308.000
54.60000 350.000
54.80000 378.000
55.00000 356.000
55.20000 326.000
55.40000 298.000
55.60000 324.000
55.80000 312.000
56.00000 315.000
56.20000 326.000
56.40000 318.000
56.60000 318.000
56.80000 319.000
57.00000 350.000
57.20000 352.000
57.40000 343.000
57.60000 353.000
57.80000 302.000
58.00000 330.000
58.20000 294.000
58.40000 374.000
58.60000 375.000
58.80000 351.000
59.00000 347.000
59.20000 337.000
59.40000 344.000
59.60000 346.000
59.80000 369.000
59.92000 385.000

File: 19.xy
5.00000 1099.000
5.20000 1072.000
5.40000 1000.000
5.60000 985.000
5.80000 919.000
6.00000 853.000
6.20000 866.000
6.40000 848.000
6.60000 797.000
6.80000 867.000
7.00000 777.000
7.20000 879.000
7.40000 1769.000
7.60000 1821.000
7.80000 799.000
8.00000 663.000
8.20000 678.000
8.40000 616.000
8.60000 589.000
8.80000 601.000
9.00000 619.000
9.20000 575.000
9.40000 576.000
9.60000 535.000
9.80000 570.000
10.00000 555.000
10.20000 576.000
10.40000 560.000
10.60000 544.000
10.80000 519.000
11.00000 551.000
11.20000 517.000
11.40000 575.000
11.60000 662.000
11.80000 562.000
12.00000 555.000
12.20000 558.000
12.40000 589.000
12.60000 616.000
12.80000 762.000
13.00000 880.000
13.20000 1326.000
13.40000 807.000
13.60000 861.000
13.80000 1210.000
14.00000 2902.000
14.20000 5844.000
14.40000 41445.000
14.60000 394726.500
14.80000 70827.000
15.00000 7779.000
15.20000 3749.000
15.40000 1854.000
15.60000 1049.000
15.80000 887.000
16.00000 804.000
16.20000 673.000
16.40000 601.000
16.60000 645.000
16.80000 563.000
17.00000 616.000
17.20000 588.000
17.40000 568.000
17.60000 586.000
17.80000 600.000
18.00000 613.000
18.20000 624.000
18.40000 605.000
18.60000 621.000
18.80000 631.000
19.00000 691.000
19.20000 665.000
19.40000 679.000
19.60000 701.000
19.80000 689.000
20.00000 724.000
20.20000 742.000
20.40000 767.000
20.60000 921.000
20.80000 905.000
21.00000 741.000
21.20000 762.000
21.40000 785.000
21.60000 795.000
21.80000 760.000
22.00000 841.000
22.20000 807.000
22.40000 838.000
22.60000 973.000
22.80000 858.000
23.00000 900.000
23.20000 874.000
23.40000 853.000
23.60000 910.000
23.80000 856.000
24.00000 856.000
24.20000 835.000
24.40000 855.000
24.60000 920.000
24.80000 878.000
25.00000 863.000
25.20000 816.000
25.40000 884.000
25.60000 876.000
25.80000 870.000
26.00000 868.000
26.20000 908.000
26.40000 1055.000
26.60000 1214.000
26.80000 1001.000
27.00000 968.000
27.20000 967.000
27.40000 909.000
27.60000 1027.000
27.80000 1022.000
28.00000 1228.000
28.20000 1582.000
28.40000 1561.000
28.60000 1717.000
28.80000 2531.000
29.00000 5975.000
29.20000 28079.000
29.40000 149224.000
29.60000 134670.900
29.80000 17805.000
30.00000 4422.000
30.20000 3200.000
30.40000 2502.000
30.60000 2109.000
30.80000 1606.000
31.00000 1425.000
31.20000 1817.000
31.40000 2302.000
31.60000 957.000
31.80000 870.000
32.00000 747.000
32.20000 755.000
32.40000 754.000
32.60000 681.000
32.80000 888.000
33.00000 1113.000
33.20000 901.000
33.40000 695.000
33.60000 673.000
33.80000 602.000
34.00000 636.000
34.20000 643.000
34.40000 596.000
34.60000 548.000
34.80000 561.000
35.00000 552.000
35.20000 502.000
35.40000 524.000
35.60000 482.000
35.80000 507.000
36.00000 519.000
36.20000 679.000
36.40000 776.000
36.60000 549.000
36.80000 479.000
37.00000 445.000
37.20000 424.000
37.40000 414.000
37.60000 419.000
37.80000 401.000
38.00000 398.000
38.20000 371.000
38.40000 371.000
38.60000 427.000
38.80000 384.000
39.00000 385.000
39.20000 368.000
39.40000 380.000
39.60000 388.000
39.80000 430.000
40.00000 380.000
40.20000 396.000
40.40000 398.000
40.60000 380.000
40.80000 390.000
41.00000 374.000
41.20000 380.000
41.40000 392.000
41.60000 418.000
41.80000 399.000
42.00000 454.000
42.20000 515.000
42.40000 426.000
42.60000 404.000
42.80000 412.000
43.00000 395.000
43.20000 365.000
43.40000 397.000
43.60000 429.000
43.80000 416.000
44.00000 487.000
44.20000 556.000
44.40000 796.000
44.60000 2235.000
44.80000 5358.000
45.00000 5082.000
45.20000 1893.000
45.40000 651.000
45.60000 492.000
45.80000 466.000
46.00000 441.000
46.20000 491.000
46.40000 454.000
46.60000 392.000
46.80000 369.000
47.00000 345.000
47.20000 379.000
47.40000 412.000
47.60000 375.000
47.80000 343.000
48.00000 350.000
48.20000 304.000
48.40000 342.000
48.60000 341.000
48.80000 341.000
49.00000 321.000
49.20000 328.000
49.40000 337.000
49.60000 319.000
49.80000 310.000
50.00000 311.000
50.20000 286.000
50.40000 290.000
50.60000 314.000
50.80000 312.000
51.00000 334.000
51.20000 296.000
51.40000 289.000
51.60000 321.000
51.80000 331.000
52.00000 309.000
52.20000 312.000
52.40000 333.000
52.60000 319.000
52.80000 312.000
53.00000 316.000
53.20000 330.000
53.40000 318.000
53.60000 304.000
53.80000 322.000
54.00000 308.000
54.20000 307.000
54.40000 318.000
54.60000 346.000
54.80000 322.000
55.00000 332.000
55.20000 308.000
55.40000 318.000
55.60000 302.000
55.80000 314.000
56.00000 334.000
56.20000 288.000
56.40000 328.000
56.60000 348.000
56.80000 312.000
57.00000 342.000
57.20000 363.000
57.40000 276.000
57.60000 351.000
57.80000 356.000
58.00000 338.000
58.20000 336.000
58.40000 345.000
58.60000 357.000
58.80000 318.000
59.00000 363.000
59.20000 353.000
59.40000 399.000
59.60000 410.000
59.80000 432.000
59.92000 396.000

File: 21.xy
5.00000 4751.000
5.24000 4568.000
5.48000 4271.000
5.72000 4226.000
5.96000 3961.000
6.20000 3613.000
6.44000 3578.000
6.68000 3229.000
6.92000 3399.000
7.16000 3166.000
7.40000 2939.000
7.64000 3022.000
7.88000 2744.000
8.12000 2788.000
8.36000 2670.000
8.60000 2642.000
8.84000 2444.000
9.08000 2396.000
9.32000 2478.000
9.56000 2365.000
9.80000 2354.000
10.04000 2094.000
10.28000 2117.000
10.52000 2064.000
10.76000 2133.000
11.00000 2081.000
11.24000 1910.000
11.48000 1951.000
11.72000 1945.000
11.96000 1972.000
12.20000 1977.000
12.44000 1911.000
12.68000 1736.000
12.92000 1862.000
13.16000 1984.000
13.40000 1934.000
13.64000 1842.000
13.88000 2030.000
14.12000 2402.000
14.36000 5581.000
14.60000 25479.000
14.84000 14716.000
15.08000 2288.000
15.32000 1998.000
15.56000 1957.000
15.80000 1991.000
16.04000 2150.000
16.28000 2129.000
16.52000 2094.000
16.76000 2085.000
17.00000 2120.000
17.24000 2154.000
17.48000 2139.000
17.72000 2195.000
17.96000 2306.000
18.20000 2355.000
18.44000 2548.000
18.68000 2659.000
18.92000 2454.000
19.16000 2348.000
19.40000 2528.000
19.64000 2517.000
19.88000 2606.000
20.12000 2686.000
20.36000 2792.000
20.60000 3987.000
20.84000 10279.000
21.08000 6149.000
21.32000 2961.000
21.56000 3080.000
21.80000 3021.000
22.04000 3071.000
22.28000 2996.000
22.52000 3045.000
22.76000 3022.000
23.00000 3140.000
23.24000 3115.000
23.48000 3169.000
23.72000 2999.000
23.96000 3101.000
24.20000 3059.000
24.44000 3145.000
24.68000 2954.000
24.92000 3033.000
25.16000 3102.000
25.40000 3003.000
25.64000 3339.000
25.88000 2999.000
26.12000 3043.000
26.36000 2892.000
26.60000 2975.000
26.84000 2869.000
27.08000 2960.000
27.32000 2975.000
27.56000 2734.000
27.80000 2834.000
28.04000 2813.000
28.28000 2826.000
28.52000 2859.000
28.76000 2899.000
29.00000 2840.000
29.24000 2919.000
29.48000 5375.000
29.72000 12620.000
29.96000 4808.000
30.20000 2750.000
30.44000 2615.000
30.68000 2586.000
30.92000 2621.000
31.16000 2482.000
31.40000 2489.000
31.64000 2429.000
31.88000 2404.000
32.12000 2316.000
32.36000 2402.000
32.60000 2390.000
32.84000 2436.000
33.08000 3390.000
33.32000 10499.000
33.56000 6084.000
33.80000 2310.000
34.04000 2055.000
34.28000 1970.000
34.52000 1914.000
34.76000 1889.000
35.00000 1822.000
35.24000 1701.000
35.48000 1729.000
35.72000 1683.000
35.96000 1638.000
36.20000 1659.000
36.44000 1890.000
36.68000 2919.000
36.92000 1953.000
37.16000 1629.000
37.40000 1647.000
37.64000 1820.000
37.88000 1589.000
38.12000 1474.000
38.36000 1435.000
38.60000 1440.000
38.84000 1448.000
39.08000 1394.000
39.32000 1370.000
39.56000 1359.000
39.80000 1453.000
40.04000 1330.000
40.28000 1337.000
40.52000 1360.000
40.76000 1446.000
41.00000 1382.000
41.24000 1391.000
41.48000 1424.000
41.72000 1422.000
41.96000 1347.000
42.20000 1459.000
42.44000 2962.000
42.68000 5269.000
42.92000 2265.000
43.16000 1427.000
43.40000 1459.000
43.64000 1377.000
43.88000 1370.000
44.12000 1369.000
44.36000 1270.000
44.60000 1408.000
44.84000 1367.000
45.08000 1698.000
45.32000 3472.000
45.56000 2515.000
45.80000 1408.000
46.04000 1287.000
46.28000 1317.000
46.52000 1201.000
46.76000 1308.000
47.00000 1255.000
47.24000 1292.000
47.48000 1272.000
47.72000 1387.000
47.96000 1549.000
48.20000 1272.000
48.44000 1199.000
48.68000 1154.000
48.92000 1113.000
49.16000 1202.000
49.40000 1192.000
49.64000 1184.000
49.88000 1195.000
50.12000 1141.000
50.36000 1129.000
50.60000 1075.000
50.84000 1108.000
51.08000 1125.000
51.32000 1173.000
51.56000 1114.000
51.80000 1121.000
52.04000 1129.000
52.28000 1122.000
52.52000 1101.000
52.76000 1431.000
53.00000 1506.000
53.24000 1192.000
53.48000 1103.000
53.72000 1069.000
53.96000 1110.000
54.20000 1149.000
54.44000 1039.000
54.68000 1131.000
54.92000 1248.000
55.16000 1703.000
55.40000 1608.000
55.64000 1187.000
55.88000 1153.000
56.12000 1070.000
56.36000 1131.000
56.60000 1172.000
56.84000 1117.000
57.08000 1138.000
57.32000 1237.000
57.56000 1403.000
57.80000 1309.000
58.04000 1154.000
58.28000 1072.000
58.52000 1098.000
58.76000 1149.000
59.00000 1096.000
59.24000 1119.000
59.48000 1156.000
59.72000 1087.000
59.96000 1058.000
60.20000 1147.000
60.44000 1097.000
60.68000 1091.000
60.92000 1128.000
61.16000 1059.000
61.40000 1110.000
61.64000 1245.000
61.88000 1310.000
62.12000 1107.000
62.36000 1082.000
62.60000 1062.000
62.84000 1149.000
63.08000 1132.000
63.32000 1115.000
63.56000 1130.000
63.80000 1388.000
64.04000 1676.000
64.28000 1316.000
64.52000 1105.000
64.76000 1131.000
65.00000 1112.000
65.24000 1035.000
65.48000 1025.000
65.72000 1075.000
65.96000 1155.000
66.20000 1248.000
66.44000 1037.000
66.68000 998.000
66.92000 1073.000
67.16000 1000.000
67.40000 931.000
67.64000 1011.000
67.88000 1000.000
68.12000 1007.000
68.36000 1035.000
68.60000 944.000
68.84000 959.000
69.08000 1004.000
69.32000 956.000
69.56000 1005.000
69.80000 919.000
69.92000 1090.000

File: 22.xy
5.00000 1510.000
5.24000 1442.000
5.48000 1372.000
5.72000 1286.000
5.96000 1280.000
6.20000 1150.000
6.44000 1198.000
6.68000 1126.000
6.92000 1042.000
7.16000 1012.000
7.40000 1014.000
7.64000 855.000
7.88000 917.000
8.12000 850.000
8.36000 857.000
8.60000 867.000
8.84000 822.000
9.08000 783.000
9.32000 711.000
9.56000 765.000
9.80000 716.000
10.04000 730.000
10.28000 640.000
10.52000 660.000
10.76000 642.000
11.00000 609.000
11.24000 647.000
11.48000 576.000
11.72000 589.000
11.96000 571.000
12.20000 635.000
12.44000 594.000
12.68000 611.000
12.92000 694.000
13.16000 619.000
13.40000 614.000
13.64000 756.000
13.88000 1105.000
14.12000 5795.000
14.36000 40630.000
14.60000 1825.000
14.84000 1614.000
15.08000 817.000
15.32000 619.000
15.56000 487.000
15.80000 517.000
16.04000 447.000
16.28000 451.000
16.52000 448.000
16.76000 424.000
17.00000 480.000
17.24000 447.000
17.48000 438.000
17.72000 423.000
17.96000 450.000
18.20000 443.000
18.44000 415.000
18.68000 410.000
18.92000 418.000
19.16000 443.000
19.40000 383.000
19.64000 424.000
19.88000 441.000
20.12000 452.000
20.36000 412.000
20.60000 485.000
20.84000 425.000
21.08000 496.000
21.32000 443.000
21.56000 477.000
21.80000 462.000
22.04000 510.000
22.28000 491.000
22.52000 470.000
22.76000 476.000
23.00000 452.000
23.24000 512.000
23.48000 537.000
23.72000 505.000
23.96000 459.000
24.20000 458.000
24.44000 481.000
24.68000 648.000
24.92000 724.000
25.16000 525.000
25.40000 464.000
25.64000 471.000
25.88000 516.000
26.12000 480.000
26.36000 474.000
26.60000 480.000
26.84000 495.000
27.08000 472.000
27.32000 481.000
27.56000 464.000
27.80000 473.000
28.04000 470.000
28.28000 529.000
28.52000 996.000
28.76000 4488.000
29.00000 579.000
29.24000 500.000
29.48000 470.000
29.72000 515.000
29.96000 541.000
30.20000 429.000
30.44000 441.000
30.68000 432.000
30.92000 388.000
31.16000 385.000
31.40000 414.000
31.64000 356.000
31.88000 398.000
32.12000 930.000
32.36000 507.000
32.60000 351.000
32.84000 330.000
33.08000 341.000
33.32000 329.000
33.56000 328.000
33.80000 338.000
34.04000 327.000
34.28000 304.000
34.52000 283.000
34.76000 308.000
35.00000 273.000
35.24000 288.000
35.48000 307.000
35.72000 243.000
35.96000 301.000
36.20000 272.000
36.44000 268.000
36.68000 263.000
36.92000 264.000
37.16000 291.000
37.40000 281.000
37.64000 265.000
37.88000 254.000
38.12000 237.000
38.36000 249.000
38.60000 221.000
38.84000 240.000
39.08000 290.000
39.32000 254.000
39.56000 227.000
39.80000 216.000
40.04000 222.000
40.28000 204.000
40.52000 218.000
40.76000 252.000
41.00000 492.000
41.24000 215.000
41.48000 201.000
41.72000 201.000
41.96000 210.000
42.20000 200.000
42.44000 206.000
42.68000 214.000
42.92000 190.000
43.16000 211.000
43.40000 228.000
43.64000 387.000
43.88000 220.000
44.12000 215.000
44.36000 197.000
44.60000 227.000
44.84000 201.000
45.08000 203.000
45.32000 195.000
45.56000 205.000
45.80000 182.000
46.04000 187.000
46.28000 230.000
46.52000 202.000
46.76000 188.000
47.00000 196.000
47.24000 206.000
47.48000 181.000
47.72000 191.000
47.96000 189.000
48.20000 190.000
48.44000 1089.000
48.68000 407.000
48.92000 209.000
49.16000 177.000
49.40000 162.000
49.64000 179.000
49.88000 177.000
50.12000 189.000
50.36000 207.000
50.60000 233.000
50.84000 214.000
51.08000 181.000
51.32000 126.000
51.56000 157.000
51.80000 153.000
52.04000 148.000
52.28000 171.000
52.52000 154.000
52.76000 145.000
53.00000 229.000
53.24000 177.000
53.48000 160.000
53.72000 141.000
53.96000 154.000
54.20000 152.000
54.44000 148.000
54.68000 140.000
54.92000 157.000
55.16000 149.000
55.40000 166.000
55.64000 159.000
55.88000 160.000
56.12000 128.000
56.36000 132.000
56.60000 146.000
56.84000 170.000
57.08000 155.000
57.32000 153.000
57.56000 130.000
57.80000 135.000
58.04000 151.000
58.28000 138.000
58.52000 130.000
58.76000 136.000
59.00000 123.000
59.24000 170.000
59.48000 135.000
59.72000 121.000
59.96000 147.000
60.20000 123.000
60.44000 124.000
60.68000 122.000
60.92000 124.000
61.16000 159.000
61.40000 203.000
61.64000 132.000
61.88000 127.000
62.12000 131.000
62.36000 139.000
62.60000 129.000
62.84000 132.000
63.08000 136.000
63.32000 140.000
63.56000 155.000
63.80000 137.000
64.04000 120.000
64.28000 122.000
64.52000 144.000
64.76000 123.000
65.00000 141.000
65.24000 140.000
65.48000 146.000
65.72000 132.000
65.96000 133.000
66.20000 146.000
66.44000 127.000
66.68000 163.000
66.92000 152.000
67.16000 415.000
67.40000 223.000
67.64000 158.000
67.88000 136.000
68.12000 145.000
68.36000 148.000
68.60000 145.000
68.84000 179.000
69.08000 417.000
69.32000 241.000
69.56000 138.000
69.80000 128.000
69.92000 134.000