Folder: campaign1/XRD (part 8)

File: 41.xy
5.00000 1582.000
5.20000 1311.000
5.40000 1312.000
5.60000 1241.000
5.80000 1249.000
6.00000 1109.000
6.20000 1075.000
6.40000 1088.000
6.60000 1020.000
6.80000 1007.000
7.00000 1015.000
7.20000 979.000
7.40000 913.000
7.60000 893.000
7.80000 937.000
8.00000 941.000
8.20000 938.000
8.40000 882.000
8.60000 986.000
8.80000 1299.000
9.00000 3756.000
9.20000 5874.000
9.40000 1045.000
9.60000 983.000
9.80000 1378.000
10.00000 1689.000
10.20000 1320.000
10.40000 1350.000
10.60000 1373.000
10.80000 1401.000
11.00000 1375.000
11.20000 1127.000
11.40000 962.000
11.60000 896.000
11.80000 789.000
12.00000 678.000
12.20000 622.000
12.40000 624.000
12.60000 637.000
12.80000 787.000
13.00000 862.000
13.20000 630.000
13.40000 613.000
13.60000 646.000
13.80000 670.000
14.00000 570.000
14.20000 584.000
14.40000 570.000
14.60000 731.000
14.80000 1901.000
15.00000 1838.000
15.20000 665.000
15.40000 728.000
15.60000 824.000
15.80000 1464.000
16.00000 902.000
16.20000 611.000
16.40000 609.000
16.60000 625.000
16.80000 643.000
17.00000 683.000
17.20000 667.000
17.40000 739.000
17.60000 765.000
17.80000 763.000
18.00000 1155.000
18.20000 4687.000
18.40000 3739.000
18.60000 963.000
18.80000 822.000
19.00000 826.000
19.20000 775.000
19.40000 822.000
19.60000 860.000
19.80000 840.000
20.00000 847.000
20.20000 867.000
20.40000 947.000
20.60000 962.000
20.80000 894.000
21.00000 1008.000
21.20000 1063.000
21.40000 1142.000
21.60000 1093.000
21.80000 1221.000
22.00000 1246.000
22.20000 1251.000
22.40000 1504.000
22.60000 1432.000
22.80000 1100.000
23.00000 1115.000
23.20000 1067.000
23.40000 1044.000
23.60000 1025.000
23.80000 1068.000
24.00000 1063.000
24.20000 1074.000
24.40000 1110.000
24.60000 1081.000
24.80000 1172.000
25.00000 1287.000
25.20000 1189.000
25.40000 1128.000
25.60000 1021.000
25.80000 1008.000
26.00000 1041.000
26.20000 1209.000
26.40000 1180.000
26.60000 1172.000
26.80000 1080.000
27.00000 1016.000
27.20000 1105.000
27.40000 1768.000
27.60000 7140.000
27.80000 1482.000
28.00000 1083.000
28.20000 1047.000
28.40000 944.000
28.60000 955.000
28.80000 910.000
29.00000 981.000
29.20000 948.000
29.40000 964.000
29.60000 927.000
29.80000 1029.000
30.00000 1361.000
30.20000 1023.000
30.40000 941.000
30.60000 1116.000
30.80000 988.000
31.00000 840.000
31.20000 877.000
31.40000 845.000
31.60000 828.000
31.80000 896.000
32.00000 1335.000
32.20000 1070.000
32.40000 828.000
32.60000 806.000
32.80000 797.000
33.00000 828.000
33.20000 793.000
33.40000 751.000
33.60000 755.000
33.80000 737.000
34.00000 741.000
34.20000 691.000
34.40000 664.000
34.60000 677.000
34.80000 684.000
35.00000 926.000
35.20000 2669.000
35.40000 930.000
35.60000 613.000
35.80000 711.000
36.00000 656.000
36.20000 579.000
36.40000 501.000
36.60000 496.000
36.80000 528.000
37.00000 728.000
37.20000 674.000
37.40000 510.000
37.60000 490.000
37.80000 509.000
38.00000 476.000
38.20000 452.000
38.40000 435.000
38.60000 508.000
38.80000 481.000
39.00000 456.000
39.20000 565.000
39.40000 760.000
39.60000 630.000
39.80000 511.000
40.00000 475.000
40.20000 637.000
40.40000 2411.000
40.60000 1045.000
40.80000 508.000
41.00000 489.000
41.20000 469.000
41.40000 414.000
41.60000 467.000
41.80000 459.000
42.00000 424.000
42.20000 472.000
42.40000 452.000
42.60000 419.000
42.80000 451.000
43.00000 445.000
43.20000 465.000
43.40000 495.000
43.60000 450.000
43.80000 507.000
44.00000 476.000
44.20000 547.000
44.40000 527.000
44.60000 499.000
44.80000 560.000
45.00000 503.000
45.20000 496.000
45.40000 466.000
45.60000 454.000
45.80000 562.000
46.00000 478.000
46.20000 485.000
46.40000 446.000
46.60000 459.000
46.80000 975.000
47.00000 564.000
47.20000 440.000
47.40000 408.000
47.60000 397.000
47.80000 406.000
48.00000 413.000
48.20000 408.000
48.40000 412.000
48.60000 384.000
48.80000 386.000
49.00000 407.000
49.20000 399.000
49.40000 378.000
49.60000 377.000
49.80000 381.000
50.00000 359.000
50.20000 401.000
50.40000 378.000
50.60000 367.000
50.80000 358.000
51.00000 385.000
51.20000 391.000
51.40000 373.000
51.60000 348.000
51.80000 406.000
52.00000 354.000
52.20000 357.000
52.40000 360.000
52.60000 339.000
52.80000 391.000
53.00000 397.000
53.20000 382.000
53.40000 345.000
53.60000 365.000
53.80000 387.000
54.00000 351.000
54.20000 379.000
54.40000 339.000
54.60000 344.000
54.80000 351.000
55.00000 378.000
55.20000 376.000
55.40000 371.000
55.60000 356.000
55.80000 355.000
56.00000 351.000
56.20000 379.000
56.40000 373.000
56.60000 478.000
56.80000 704.000
57.00000 949.000
57.20000 504.000
57.40000 385.000
57.60000 364.000
57.80000 358.000
58.00000 364.000
58.20000 360.000
58.40000 346.000
58.60000 406.000
58.80000 358.000
59.00000 393.000
59.20000 355.000
59.40000 345.000
59.60000 353.000
59.80000 365.000
59.92000 354.000

File: 42.xy
5.00000 6658.000
5.24000 5650.000
5.48000 4632.000
5.72000 3820.000
5.96000 3280.000
6.20000 2854.000
6.44000 2532.000
6.68000 2233.000
6.92000 1937.000
7.16000 1822.000
7.40000 1595.000
7.64000 1573.000
7.88000 1451.000
8.12000 1341.000
8.36000 1292.000
8.60000 1229.000
8.84000 1150.000
9.08000 1142.000
9.32000 1098.000
9.56000 1225.000
9.80000 1844.000
10.04000 3555.000
10.28000 1170.000
10.52000 1044.000
10.76000 962.000
11.00000 931.000
11.24000 907.000
11.48000 841.000
11.72000 914.000
11.96000 935.000
12.20000 923.000
12.44000 856.000
12.68000 854.000
12.92000 932.000
13.16000 977.000
13.40000 1167.000
13.64000 1026.000
13.88000 979.000
14.12000 1015.000
14.36000 1221.000
14.60000 1632.000
14.84000 5557.000
15.08000 4615.000
15.32000 1220.000
15.56000 1012.000
15.80000 946.000
16.04000 949.000
16.28000 1059.000
16.52000 995.000
16.76000 989.000
17.00000 987.000
17.24000 1058.000
17.48000 1076.000
17.72000 1130.000
17.96000 1169.000
18.20000 1131.000
18.44000 1181.000
18.68000 1235.000
18.92000 1315.000
19.16000 1274.000
19.40000 1381.000
19.64000 1375.000
19.88000 1556.000
20.12000 1629.000
20.36000 1461.000
20.60000 1560.000
20.84000 1522.000
21.08000 1608.000
21.32000 1570.000
21.56000 1588.000
21.80000 1572.000
22.04000 1673.000
22.28000 1637.000
22.52000 1606.000
22.76000 1749.000
23.00000 1700.000
23.24000 1749.000
23.48000 1751.000
23.72000 1753.000
23.96000 1764.000
24.20000 1733.000
24.44000 1824.000
24.68000 1910.000
24.92000 3483.000
25.16000 5862.000
25.40000 2156.000
25.64000 2085.000
25.88000 3843.000
26.12000 1775.000
26.36000 1698.000
26.60000 1667.000
26.84000 1709.000
27.08000 1674.000
27.32000 1564.000
27.56000 1624.000
27.80000 1562.000
28.04000 1491.000
28.28000 1530.000
28.52000 1495.000
28.76000 1558.000
29.00000 1547.000
29.24000 1470.000
29.48000 1525.000
29.72000 1644.000
29.96000 2192.000
30.20000 6979.000
30.44000 2133.000
30.68000 1531.000
30.92000 1379.000
31.16000 1377.000
31.40000 1244.000
31.64000 1348.000
31.88000 1272.000
32.12000 1218.000
32.36000 1218.000
32.60000 1188.000
32.84000 1184.000
33.08000 1171.000
33.32000 1201.000
33.56000 1270.000
33.80000 1631.000
34.04000 1281.000
34.28000 1229.000
34.52000 1254.000
34.76000 1455.000
35.00000 2203.000
35.24000 8522.000
35.48000 8189.000
35.72000 1619.000
35.96000 1084.000
36.20000 943.000
36.44000 878.000
36.68000 860.000
36.92000 912.000
37.16000 813.000
37.40000 772.000
37.64000 820.000
37.88000 766.000
38.12000 711.000
38.36000 765.000
38.60000 728.000
38.84000 752.000
39.08000 733.000
39.32000 683.000
39.56000 731.000
39.80000 763.000
40.04000 842.000
40.28000 1171.000
40.52000 7110.000
40.76000 6778.000
41.00000 1197.000
41.24000 868.000
41.48000 767.000
41.72000 730.000
41.96000 723.000
42.20000 680.000
42.44000 699.000
42.68000 700.000
42.92000 648.000
43.16000 626.000
43.40000 660.000
43.64000 663.000
43.88000 698.000
44.12000 652.000
44.36000 679.000
44.60000 647.000
44.84000 682.000
45.08000 669.000
45.32000 654.000
45.56000 718.000
45.80000 775.000
46.04000 998.000
46.28000 696.000
46.52000 634.000
46.76000 651.000
47.00000 599.000
47.24000 619.000
47.48000 575.000
47.72000 586.000
47.96000 635.000
48.20000 563.000
48.44000 625.000
48.68000 570.000
48.92000 542.000
49.16000 561.000
49.40000 552.000
49.64000 554.000
49.88000 584.000
50.12000 580.000
50.36000 565.000
50.60000 537.000
50.84000 538.000
51.08000 546.000
51.32000 559.000
51.56000 578.000
51.80000 568.000
52.04000 524.000
52.28000 534.000
52.52000 555.000
52.76000 495.000
53.00000 575.000
53.24000 607.000
53.48000 565.000
53.72000 551.000
53.96000 522.000
54.20000 582.000
54.44000 538.000
54.68000 553.000
54.92000 545.000
55.16000 533.000
55.40000 526.000
55.64000 560.000
55.88000 585.000
56.12000 510.000
56.36000 577.000
56.60000 601.000
56.84000 933.000
57.08000 1250.000
57.32000 663.000
57.56000 583.000
57.80000 510.000
58.04000 514.000
58.28000 570.000
58.52000 553.000
58.76000 535.000
59.00000 568.000
59.24000 516.000
59.48000 560.000
59.72000 524.000
59.96000 574.000
60.20000 528.000
60.44000 529.000
60.68000 536.000
60.92000 554.000
61.16000 534.000
61.40000 532.000
61.64000 557.000
61.88000 513.000
62.12000 572.000
62.36000 546.000
62.60000 697.000
62.84000 756.000
63.08000 562.000
63.32000 533.000
63.56000 563.000
63.80000 541.000
64.04000 551.000
64.28000 563.000
64.52000 545.000
64.76000 527.000
65.00000 543.000
65.24000 477.000
65.48000 517.000
65.72000 535.000
65.96000 526.000
66.20000 533.000
66.44000 484.000
66.68000 461.000
66.92000 473.000
67.16000 501.000
67.40000 508.000
67.64000 500.000
67.88000 456.000
68.12000 456.000
68.36000 453.000
68.60000 545.000
68.84000 483.000
69.08000 487.000
69.32000 477.000
69.56000 460.000
69.80000 473.000
69.92000 421.000

File: 43.xy
5.00000 2717.000
5.20000 2773.000
5.40000 2591.000
5.60000 2553.000
5.80000 2440.000
6.00000 2324.000
6.20000 2247.000
6.40000 2191.000
6.60000 2121.000
6.80000 2085.000
7.00000 2004.000
7.20000 2022.000
7.40000 1915.000
7.60000 1894.000
7.80000 1907.000
8.00000 2083.000
8.20000 5142.000
8.40000 14378.000
8.60000 12629.000
8.80000 18065.000
9.00000 6568.000
9.20000 1945.000
9.40000 1606.000
9.60000 1526.000
9.80000 1514.000
10.00000 1430.000
10.20000 1366.000
10.40000 1367.000
10.60000 1448.000
10.80000 1298.000
11.00000 1391.000
11.20000 1327.000
11.40000 1293.000
11.60000 1326.000
11.80000 1464.000
12.00000 1497.000
12.20000 1262.000
12.40000 1276.000
12.60000 1265.000
12.80000 1270.000
13.00000 1220.000
13.20000 1321.000
13.40000 1182.000
13.60000 1230.000
13.80000 1171.000
14.00000 1198.000
14.20000 1383.000
14.40000 1312.000
14.60000 1260.000
14.80000 1321.000
15.00000 1588.000
15.20000 1520.000
15.40000 1288.000
15.60000 1312.000
15.80000 1312.000
16.00000 1329.000
16.20000 1347.000
16.40000 1417.000
16.60000 1926.000
16.80000 8060.000
17.00000 10800.000
17.20000 3158.000
17.40000 3526.000
17.60000 23252.000
17.80000 22291.000
18.00000 4061.000
18.20000 1757.000
18.40000 1565.000
18.60000 1544.000
18.80000 1508.000
19.00000 1537.000
19.20000 1515.000
19.40000 1549.000
19.60000 1471.000
19.80000 1526.000
20.00000 1555.000
20.20000 1711.000
20.40000 1662.000
20.60000 1655.000
20.80000 1675.000
21.00000 1647.000
21.20000 1754.000
21.40000 1681.000
21.60000 2024.000
21.80000 2186.000
22.00000 1830.000
22.20000 1807.000
22.40000 1815.000
22.60000 1830.000
22.80000 1841.000
23.00000 1928.000
23.20000 1880.000
23.40000 1871.000
23.60000 1802.000
23.80000 1840.000
24.00000 1973.000
24.20000 1882.000
24.40000 1959.000
24.60000 1879.000
24.80000 1882.000
25.00000 1911.000
25.20000 2508.000
25.40000 8715.000
25.60000 14588.000
25.80000 5122.000
26.00000 2131.000
26.20000 1999.000
26.40000 2247.000
26.60000 5934.000
26.80000 7600.000
27.00000 3116.000
27.20000 1861.000
27.40000 1729.000
27.60000 1729.000
27.80000 1764.000
28.00000 1659.000
28.20000 1608.000
28.40000 1563.000
28.60000 1553.000
28.80000 1671.000
29.00000 1537.000
29.20000 1550.000
29.40000 1628.000
29.60000 1478.000
29.80000 1511.000
30.00000 1458.000
30.20000 1496.000
30.40000 1582.000
30.60000 1682.000
30.80000 1719.000
31.00000 1484.000
31.20000 1463.000
31.40000 1406.000
31.60000 1381.000
31.80000 1383.000
32.00000 1310.000
32.20000 1252.000
32.40000 1244.000
32.60000 1251.000
32.80000 1225.000
33.00000 1262.000
33.20000 1206.000
33.40000 1215.000
33.60000 1264.000
33.80000 1281.000
34.00000 1292.000
34.20000 1278.000
34.40000 1308.000
34.60000 1125.000
34.80000 1022.000
35.00000 1009.000
35.20000 978.000
35.40000 983.000
35.60000 1050.000
35.80000 1427.000
36.00000 1689.000
36.20000 1115.000
36.40000 953.000
36.60000 954.000
36.80000 897.000
37.00000 914.000
37.20000 894.000
37.40000 822.000
37.60000 782.000
37.80000 811.000
38.00000 854.000
38.20000 825.000
38.40000 864.000
38.60000 910.000
38.80000 942.000
39.00000 910.000
39.20000 773.000
39.40000 783.000
39.60000 739.000
39.80000 705.000
40.00000 764.000
40.20000 713.000
40.40000 716.000
40.60000 815.000
40.80000 762.000
41.00000 712.000
41.20000 771.000
41.40000 737.000
41.60000 798.000
41.80000 747.000
42.00000 686.000
42.20000 758.000
42.40000 764.000
42.60000 741.000
42.80000 822.000
43.00000 863.000
43.20000 1699.000
43.40000 2326.000
43.60000 1260.000
43.80000 791.000
44.00000 790.000
44.20000 779.000
44.40000 754.000
44.60000 832.000
44.80000 751.000
45.00000 769.000
45.20000 1123.000
45.40000 1827.000
45.60000 1300.000
45.80000 835.000
46.00000 687.000
46.20000 753.000
46.40000 696.000
46.60000 726.000
46.80000 676.000
47.00000 679.000
47.20000 669.000
47.40000 685.000
47.60000 662.000
47.80000 656.000
48.00000 704.000
48.20000 654.000
48.40000 645.000
48.60000 666.000
48.80000 609.000
49.00000 618.000
49.20000 615.000
49.40000 635.000
49.60000 635.000
49.80000 608.000
50.00000 660.000
50.20000 613.000
50.40000 599.000
50.60000 615.000
50.80000 627.000
51.00000 629.000
51.20000 585.000
51.40000 605.000
51.60000 638.000
51.80000 614.000
52.00000 602.000
52.20000 672.000
52.40000 1006.000
52.60000 1905.000
52.80000 1441.000
53.00000 737.000
53.20000 647.000
53.40000 622.000
53.60000 577.000
53.80000 600.000
54.00000 570.000
54.20000 593.000
54.40000 636.000
54.60000 619.000
54.80000 623.000
55.00000 658.000
55.20000 642.000
55.40000 618.000
55.60000 539.000
55.80000 613.000
56.00000 568.000
56.20000 614.000
56.40000 566.000
56.60000 590.000
56.80000 632.000
57.00000 573.000
57.20000 627.000
57.40000 590.000
57.60000 606.000
57.80000 613.000
58.00000 665.000
58.20000 618.000
58.40000 592.000
58.60000 576.000
58.80000 647.000
59.00000 605.000
59.20000 559.000
59.40000 578.000
59.60000 590.000
59.80000 618.000
59.92000 575.000

File: 44.xy
5.00000 2791.000
5.20000 2747.000
5.40000 2555.000
5.60000 2513.000
5.80000 2485.000
6.00000 2244.000
6.20000 2211.000
6.40000 2154.000
6.60000 1949.000
6.80000 2019.000
7.00000 1974.000
7.20000 1939.000
7.40000 1875.000
7.60000 1908.000
7.80000 1878.000
8.00000 1790.000
8.20000 1978.000
8.40000 2122.000
8.60000 1828.000
8.80000 1583.000
9.00000 1596.000
9.20000 1590.000
9.40000 1464.000
9.60000 1414.000
9.80000 1440.000
10.00000 1382.000
10.20000 1389.000
10.40000 1346.000
10.60000 1349.000
10.80000 1324.000
11.00000 1348.000
11.20000 1277.000
11.40000 1245.000
11.60000 1225.000
11.80000 1320.000
12.00000 1293.000
12.20000 1273.000
12.40000 1288.000
12.60000 1340.000
12.80000 1248.000
13.00000 1148.000
13.20000 1194.000
13.40000 1136.000
13.60000 1169.000
13.80000 1172.000
14.00000 1106.000
14.20000 1179.000
14.40000 1155.000
14.60000 1171.000
14.80000 1247.000
15.00000 1474.000
15.20000 1519.000
15.40000 1245.000
15.60000 1161.000
15.80000 1114.000
16.00000 1183.000
16.20000 1207.000
16.40000 1217.000
16.60000 1241.000
16.80000 1198.000
17.00000 1512.000
17.20000 1516.000
17.40000 1326.000
17.60000 1277.000
17.80000 1255.000
18.00000 1300.000
18.20000 1307.000
18.40000 1366.000
18.60000 1430.000
18.80000 1471.000
19.00000 1395.000
19.20000 1532.000
19.40000 1454.000
19.60000 1522.000
19.80000 1561.000
20.00000 1544.000
20.20000 1557.000
20.40000 1621.000
20.60000 1604.000
20.80000 1607.000
21.00000 1665.000
21.20000 1651.000
21.40000 1803.000
21.60000 1927.000
21.80000 1903.000
22.00000 1720.000
22.20000 1786.000
22.40000 1764.000
22.60000 1706.000
22.80000 1785.000
23.00000 1816.000
23.20000 1769.000
23.40000 1796.000
23.60000 1903.000
23.80000 1798.000
24.00000 1783.000
24.20000 1775.000
24.40000 1911.000
24.60000 2026.000
24.80000 1925.000
25.00000 2109.000
25.20000 2147.000
25.40000 2167.000
25.60000 2404.000
25.80000 3424.000
26.00000 3011.000
26.20000 1829.000
26.40000 1822.000
26.60000 1730.000
26.80000 1744.000
27.00000 1772.000
27.20000 1687.000
27.40000 1669.000
27.60000 1693.000
27.80000 1687.000
28.00000 1685.000
28.20000 1698.000
28.40000 1654.000
28.60000 1533.000
28.80000 1589.000
29.00000 1645.000
29.20000 1588.000
29.40000 1484.000
29.60000 1493.000
29.80000 1522.000
30.00000 1486.000
30.20000 1429.000
30.40000 1502.000
30.60000 1577.000
30.80000 1530.000
31.00000 1622.000
31.20000 1597.000
31.40000 1405.000
31.60000 1346.000
31.80000 1307.000
32.00000 1315.000
32.20000 1271.000
32.40000 1272.000
32.60000 1270.000
32.80000 1236.000
33.00000 1255.000
33.20000 1146.000
33.40000 1271.000
33.60000 1145.000
33.80000 1190.000
34.00000 1135.000
34.20000 1159.000
34.40000 1139.000
34.60000 1068.000
34.80000 1069.000
35.00000 1034.000
35.20000 1038.000
35.40000 996.000
35.60000 993.000
35.80000 985.000
36.00000 969.000
36.20000 967.000
36.40000 876.000
36.60000 871.000
36.80000 831.000
37.00000 864.000
37.20000 900.000
37.40000 850.000
37.60000 782.000
37.80000 788.000
38.00000 803.000
38.20000 804.000
38.40000 843.000
38.60000 832.000
38.80000 754.000
39.00000 749.000
39.20000 747.000
39.40000 776.000
39.60000 721.000
39.80000 719.000
40.00000 712.000
40.20000 706.000
40.40000 747.000
40.60000 721.000
40.80000 760.000
41.00000 693.000
41.20000 704.000
41.40000 754.000
41.60000 708.000
41.80000 746.000
42.00000 731.000
42.20000 774.000
42.40000 760.000
42.60000 744.000
42.80000 742.000
43.00000 735.000
43.20000 731.000
43.40000 735.000
43.60000 709.000
43.80000 763.000
44.00000 840.000
44.20000 781.000
44.40000 783.000
44.60000 751.000
44.80000 701.000
45.00000 704.000
45.20000 693.000
45.40000 735.000
45.60000 742.000
45.80000 786.000
46.00000 845.000
46.20000 831.000
46.40000 749.000
46.60000 703.000
46.80000 681.000
47.00000 683.000
47.20000 692.000
47.40000 667.000
47.60000 657.000
47.80000 644.000
48.00000 651.000
48.20000 624.000
48.40000 647.000
48.60000 692.000
48.80000 654.000
49.00000 761.000
49.20000 655.000
49.40000 693.000
49.60000 655.000
49.80000 624.000
50.00000 608.000
50.20000 597.000
50.40000 663.000
50.60000 648.000
50.80000 607.000
51.00000 587.000
51.20000 590.000
51.40000 607.000
51.60000 615.000
51.80000 619.000
52.00000 623.000
52.20000 627.000
52.40000 573.000
52.60000 610.000
52.80000 611.000
53.00000 571.000
53.20000 643.000
53.40000 643.000
53.60000 563.000
53.80000 610.000
54.00000 616.000
54.20000 592.000
54.40000 602.000
54.60000 662.000
54.80000 571.000
55.00000 629.000
55.20000 617.000
55.40000 570.000
55.60000 583.000
55.80000 615.000
56.00000 624.000
56.20000 559.000
56.40000 565.000
56.60000 603.000
56.80000 632.000
57.00000 651.000
57.20000 580.000
57.40000 581.000
57.60000 618.000
57.80000 609.000
58.00000 557.000
58.20000 572.000
58.40000 599.000
58.60000 655.000
58.80000 644.000
59.00000 633.000
59.20000 586.000
59.40000 573.000
59.60000 599.000
59.80000 594.000
59.92000 591.000

File: 45.xy
5.00000 1581.000
5.20000 1472.000
5.40000 1424.000
5.60000 1316.000
5.80000 1354.000
6.00000 1265.000
6.20000 1261.000
6.40000 1206.000
6.60000 1087.000
6.80000 1098.000
7.00000 1068.000
7.20000 1074.000
7.40000 1016.000
7.60000 1001.000
7.80000 993.000
8.00000 1084.000
8.20000 1189.000
8.40000 1153.000
8.60000 899.000
8.80000 882.000
9.00000 780.000
9.20000 796.000
9.40000 769.000
9.60000 744.000
9.80000 739.000
10.00000 754.000
10.20000 778.000
10.40000 698.000
10.60000 713.000
10.80000 772.000
11.00000 719.000
11.20000 700.000
11.40000 677.000
11.60000 769.000
11.80000 741.000
12.00000 868.000
12.20000 828.000
12.40000 762.000
12.60000 873.000
12.80000 1017.000
13.00000 830.000
13.20000 750.000
13.40000 676.000
13.60000 702.000
13.80000 638.000
14.00000 685.000
14.20000 688.000
14.40000 681.000
14.60000 702.000
14.80000 666.000
15.00000 703.000
15.20000 689.000
15.40000 761.000
15.60000 726.000
15.80000 722.000
16.00000 717.000
16.20000 781.000
16.40000 802.000
16.60000 962.000
16.80000 972.000
17.00000 832.000
17.20000 761.000
17.40000 839.000
17.60000 869.000
17.80000 903.000
18.00000 844.000
18.20000 934.000
18.40000 820.000
18.60000 892.000
18.80000 917.000
19.00000 865.000
19.20000 970.000
19.40000 1040.000
19.60000 925.000
19.80000 1037.000
20.00000 1070.000
20.20000 1065.000
20.40000 1148.000
20.60000 1197.000
20.80000 1151.000
21.00000 1198.000
21.20000 1326.000
21.40000 1253.000
21.60000 1201.000
21.80000 1203.000
22.00000 1219.000
22.20000 1221.000
22.40000 1243.000
22.60000 1274.000
22.80000 1250.000
23.00000 1338.000
23.20000 1301.000
23.40000 1266.000
23.60000 1271.000
23.80000 1377.000
24.00000 1371.000
24.20000 1483.000
24.40000 1499.000
24.60000 1497.000
24.80000 1585.000
25.00000 2198.000
25.20000 2724.000
25.40000 2174.000
25.60000 1598.000
25.80000 1626.000
26.00000 1450.000
26.20000 1308.000
26.40000 1361.000
26.60000 1267.000
26.80000 1249.000
27.00000 1322.000
27.20000 1310.000
27.40000 1382.000
27.60000 1449.000
27.80000 1294.000
28.00000 1166.000
28.20000 1246.000
28.40000 1132.000
28.60000 1089.000
28.80000 1164.000
29.00000 1124.000
29.20000 1163.000
29.40000 1156.000
29.60000 1283.000
29.80000 1314.000
30.00000 1204.000
30.20000 1137.000
30.40000 995.000
30.60000 1078.000
30.80000 1052.000
31.00000 1029.000
31.20000 1050.000
31.40000 1035.000
31.60000 1003.000
31.80000 956.000
32.00000 1008.000
32.20000 1080.000
32.40000 1067.000
32.60000 1030.000
32.80000 1023.000
33.00000 947.000
33.20000 990.000
33.40000 873.000
33.60000 832.000
33.80000 895.000
34.00000 813.000
34.20000 799.000
34.40000 788.000
34.60000 798.000
34.80000 707.000
35.00000 800.000
35.20000 707.000
35.40000 681.000
35.60000 733.000
35.80000 665.000
36.00000 637.000
36.20000 625.000
36.40000 660.000
36.60000 628.000
36.80000 625.000
37.00000 641.000
37.20000 646.000
37.40000 581.000
37.60000 545.000
37.80000 584.000
38.00000 599.000
38.20000 549.000
38.40000 588.000
38.60000 622.000
38.80000 587.000
39.00000 564.000
39.20000 572.000
39.40000 569.000
39.60000 575.000
39.80000 557.000
40.00000 549.000
40.20000 521.000
40.40000 555.000
40.60000 535.000
40.80000 542.000
41.00000 539.000
41.20000 587.000
41.40000 515.000
41.60000 552.000
41.80000 517.000
42.00000 537.000
42.20000 618.000
42.40000 579.000
42.60000 628.000
42.80000 678.000
43.00000 690.000
43.20000 562.000
43.40000 535.000
43.60000 543.000
43.80000 515.000
44.00000 539.000
44.20000 519.000
44.40000 506.000
44.60000 518.000
44.80000 547.000
45.00000 554.000
45.20000 533.000
45.40000 552.000
45.60000 589.000
45.80000 599.000
46.00000 560.000
46.20000 546.000
46.40000 547.000
46.60000 521.000
46.80000 497.000
47.00000 460.000
47.20000 488.000
47.40000 444.000
47.60000 461.000
47.80000 491.000
48.00000 456.000
48.20000 524.000
48.40000 486.000
48.60000 487.000
48.80000 482.000
49.00000 486.000
49.20000 454.000
49.40000 469.000
49.60000 492.000
49.80000 458.000
50.00000 450.000
50.20000 462.000
50.40000 528.000
50.60000 518.000
50.80000 492.000
51.00000 451.000
51.20000 477.000
51.40000 477.000
51.60000 521.000
51.80000 607.000
52.00000 574.000
52.20000 486.000
52.40000 445.000
52.60000 460.000
52.80000 458.000
53.00000 456.000
53.20000 449.000
53.40000 458.000
53.60000 427.000
53.80000 466.000
54.00000 462.000
54.20000 382.000
54.40000 420.000
54.60000 419.000
54.80000 467.000
55.00000 434.000
55.20000 448.000
55.40000 452.000
55.60000 431.000
55.80000 443.000
56.00000 463.000
56.20000 476.000
56.40000 449.000
56.60000 440.000
56.80000 442.000
57.00000 426.000
57.20000 468.000
57.40000 463.000
57.60000 413.000
57.80000 428.000
58.00000 439.000
58.20000 462.000
58.40000 446.000
58.60000 454.000
58.80000 425.000
59.00000 459.000
59.20000 433.000
59.40000 427.000
59.60000 457.000
59.80000 437.000
59.92000 417.000