Folder: campaign1/XRD (part 9)

File: 46.xy
5.00000 1429.000
5.20000 1460.000
5.40000 1355.000
5.60000 1320.000
5.80000 1269.000
6.00000 1168.000
6.20000 1171.000
6.40000 1119.000
6.60000 1131.000
6.80000 1062.000
7.00000 1060.000
7.20000 1046.000
7.40000 1021.000
7.60000 1013.000
7.80000 1013.000
8.00000 1007.000
8.20000 1082.000
8.40000 1095.000
8.60000 906.000
8.80000 831.000
9.00000 816.000
9.20000 761.000
9.40000 802.000
9.60000 791.000
9.80000 805.000
10.00000 807.000
10.20000 757.000
10.40000 696.000
10.60000 743.000
10.80000 698.000
11.00000 706.000
11.20000 690.000
11.40000 717.000
11.60000 755.000
11.80000 766.000
12.00000 815.000
12.20000 811.000
12.40000 764.000
12.60000 913.000
12.80000 1034.000
13.00000 855.000
13.20000 678.000
13.40000 656.000
13.60000 636.000
13.80000 637.000
14.00000 658.000
14.20000 663.000
14.40000 618.000
14.60000 689.000
14.80000 700.000
15.00000 711.000
15.20000 664.000
15.40000 693.000
15.60000 707.000
15.80000 694.000
16.00000 703.000
16.20000 746.000
16.40000 805.000
16.60000 910.000
16.80000 861.000
17.00000 777.000
17.20000 775.000
17.40000 771.000
17.60000 818.000
17.80000 858.000
18.00000 831.000
18.20000 839.000
18.40000 846.000
18.60000 916.000
18.80000 880.000
19.00000 932.000
19.20000 919.000
19.40000 970.000
19.60000 931.000
19.80000 1015.000
20.00000 1006.000
20.20000 1099.000
20.40000 1095.000
20.60000 1148.000
20.80000 1169.000
21.00000 1208.000
21.20000 1249.000
21.40000 1136.000
21.60000 1197.000
21.80000 1226.000
22.00000 1160.000
22.20000 1209.000
22.40000 1255.000
22.60000 1211.000
22.80000 1270.000
23.00000 1241.000
23.20000 1170.000
23.40000 1297.000
23.60000 1293.000
23.80000 1245.000
24.00000 1350.000
24.20000 1401.000
24.40000 1466.000
24.60000 1357.000
24.80000 1488.000
25.00000 1917.000
25.20000 2576.000
25.40000 2081.000
25.60000 1703.000
25.80000 1616.000
26.00000 1538.000
26.20000 1337.000
26.40000 1294.000
26.60000 1231.000
26.80000 1224.000
27.00000 1230.000
27.20000 1337.000
27.40000 1425.000
27.60000 1511.000
27.80000 1364.000
28.00000 1204.000
28.20000 1120.000
28.40000 1156.000
28.60000 1117.000
28.80000 1132.000
29.00000 1154.000
29.20000 1100.000
29.40000 1168.000
29.60000 1248.000
29.80000 1405.000
30.00000 1268.000
30.20000 1011.000
30.40000 1141.000
30.60000 1049.000
30.80000 1044.000
31.00000 999.000
31.20000 966.000
31.40000 981.000
31.60000 981.000
31.80000 968.000
32.00000 1045.000
32.20000 1031.000
32.40000 1108.000
32.60000 1136.000
32.80000 1023.000
33.00000 965.000
33.20000 932.000
33.40000 890.000
33.60000 787.000
33.80000 817.000
34.00000 803.000
34.20000 748.000
34.40000 744.000
34.60000 813.000
34.80000 758.000
35.00000 737.000
35.20000 736.000
35.40000 737.000
35.60000 655.000
35.80000 661.000
36.00000 645.000
36.20000 679.000
36.40000 638.000
36.60000 607.000
36.80000 660.000
37.00000 643.000
37.20000 595.000
37.40000 559.000
37.60000 542.000
37.80000 562.000
38.00000 580.000
38.20000 537.000
38.40000 584.000
38.60000 594.000
38.80000 586.000
39.00000 555.000
39.20000 547.000
39.40000 497.000
39.60000 544.000
39.80000 547.000
40.00000 565.000
40.20000 528.000
40.40000 589.000
40.60000 553.000
40.80000 565.000
41.00000 535.000
41.20000 531.000
41.40000 524.000
41.60000 539.000
41.80000 499.000
42.00000 535.000
42.20000 575.000
42.40000 589.000
42.60000 605.000
42.80000 633.000
43.00000 620.000
43.20000 591.000
43.40000 562.000
43.60000 520.000
43.80000 492.000
44.00000 520.000
44.20000 545.000
44.40000 541.000
44.60000 525.000
44.80000 519.000
45.00000 543.000
45.20000 547.000
45.40000 522.000
45.60000 540.000
45.80000 559.000
46.00000 583.000
46.20000 535.000
46.40000 522.000
46.60000 530.000
46.80000 522.000
47.00000 518.000
47.20000 487.000
47.40000 471.000
47.60000 511.000
47.80000 506.000
48.00000 444.000
48.20000 506.000
48.40000 456.000
48.60000 465.000
48.80000 437.000
49.00000 472.000
49.20000 482.000
49.40000 438.000
49.60000 487.000
49.80000 447.000
50.00000 478.000
50.20000 450.000
50.40000 463.000
50.60000 521.000
50.80000 540.000
51.00000 457.000
51.20000 459.000
51.40000 485.000
51.60000 528.000
51.80000 585.000
52.00000 562.000
52.20000 518.000
52.40000 494.000
52.60000 420.000
52.80000 460.000
53.00000 448.000
53.20000 465.000
53.40000 483.000
53.60000 444.000
53.80000 438.000
54.00000 431.000
54.20000 454.000
54.40000 460.000
54.60000 431.000
54.80000 437.000
55.00000 464.000
55.20000 390.000
55.40000 467.000
55.60000 468.000
55.80000 406.000
56.00000 448.000
56.20000 408.000
56.40000 451.000
56.60000 449.000
56.80000 438.000
57.00000 410.000
57.20000 440.000
57.40000 440.000
57.60000 412.000
57.80000 409.000
58.00000 439.000
58.20000 462.000
58.40000 447.000
58.60000 425.000
58.80000 433.000
59.00000 433.000
59.20000 442.000
59.40000 439.000
59.60000 439.000
59.80000 396.000
59.92000 427.000

File: 47.xy
5.00000 1488.000
5.20000 1370.000
5.40000 1347.000
5.60000 1357.000
5.80000 1265.000
6.00000 1160.000
6.20000 1198.000
6.40000 1163.000
6.60000 1103.000
6.80000 1049.000
7.00000 998.000
7.20000 1006.000
7.40000 964.000
7.60000 990.000
7.80000 962.000
8.00000 969.000
8.20000 1067.000
8.40000 1057.000
8.60000 957.000
8.80000 805.000
9.00000 834.000
9.20000 816.000
9.40000 808.000
9.60000 751.000
9.80000 744.000
10.00000 740.000
10.20000 741.000
10.40000 754.000
10.60000 680.000
10.80000 682.000
11.00000 728.000
11.20000 770.000
11.40000 713.000
11.60000 755.000
11.80000 769.000
12.00000 811.000
12.20000 806.000
12.40000 817.000
12.60000 936.000
12.80000 1009.000
13.00000 890.000
13.20000 727.000
13.40000 636.000
13.60000 651.000
13.80000 683.000
14.00000 663.000
14.20000 659.000
14.40000 627.000
14.60000 669.000
14.80000 673.000
15.00000 719.000
15.20000 639.000
15.40000 660.000
15.60000 637.000
15.80000 662.000
16.00000 722.000
16.20000 736.000
16.40000 752.000
16.60000 850.000
16.80000 855.000
17.00000 861.000
17.20000 825.000
17.40000 800.000
17.60000 822.000
17.80000 884.000
18.00000 837.000
18.20000 817.000
18.40000 870.000
18.60000 893.000
18.80000 934.000
19.00000 977.000
19.20000 923.000
19.40000 956.000
19.60000 966.000
19.80000 958.000
20.00000 1029.000
20.20000 1025.000
20.40000 1073.000
20.60000 1087.000
20.80000 1148.000
21.00000 1239.000
21.20000 1216.000
21.40000 1177.000
21.60000 1076.000
21.80000 1182.000
22.00000 1179.000
22.20000 1177.000
22.40000 1237.000
22.60000 1219.000
22.80000 1253.000
23.00000 1276.000
23.20000 1290.000
23.40000 1230.000
23.60000 1309.000
23.80000 1270.000
24.00000 1292.000
24.20000 1376.000
24.40000 1488.000
24.60000 1387.000
24.80000 1392.000
25.00000 1695.000
25.20000 2072.000
25.40000 1949.000
25.60000 1649.000
25.80000 1650.000
26.00000 1583.000
26.20000 1306.000
26.40000 1269.000
26.60000 1301.000
26.80000 1248.000
27.00000 1322.000
27.20000 1310.000
27.40000 1466.000
27.60000 1520.000
27.80000 1400.000
28.00000 1256.000
28.20000 1243.000
28.40000 1194.000
28.60000 1117.000
28.80000 1141.000
29.00000 1120.000
29.20000 1134.000
29.40000 1183.000
29.60000 1201.000
29.80000 1458.000
30.00000 1342.000
30.20000 1119.000
30.40000 1045.000
30.60000 1024.000
30.80000 1025.000
31.00000 1023.000
31.20000 1046.000
31.40000 963.000
31.60000 983.000
31.80000 978.000
32.00000 983.000
32.20000 1063.000
32.40000 1156.000
32.60000 1173.000
32.80000 1077.000
33.00000 954.000
33.20000 893.000
33.40000 900.000
33.60000 862.000
33.80000 811.000
34.00000 793.000
34.20000 767.000
34.40000 764.000
34.60000 729.000
34.80000 739.000
35.00000 725.000
35.20000 728.000
35.40000 701.000
35.60000 661.000
35.80000 665.000
36.00000 662.000
36.20000 662.000
36.40000 603.000
36.60000 634.000
36.80000 585.000
37.00000 642.000
37.20000 618.000
37.40000 606.000
37.60000 565.000
37.80000 538.000
38.00000 530.000
38.20000 558.000
38.40000 579.000
38.60000 586.000
38.80000 586.000
39.00000 576.000
39.20000 564.000
39.40000 565.000
39.60000 525.000
39.80000 579.000
40.00000 545.000
40.20000 499.000
40.40000 535.000
40.60000 552.000
40.80000 486.000
41.00000 519.000
41.20000 561.000
41.40000 517.000
41.60000 548.000
41.80000 588.000
42.00000 576.000
42.20000 626.000
42.40000 608.000
42.60000 626.000
42.80000 628.000
43.00000 709.000
43.20000 648.000
43.40000 555.000
43.60000 532.000
43.80000 548.000
44.00000 548.000
44.20000 524.000
44.40000 500.000
44.60000 548.000
44.80000 581.000
45.00000 495.000
45.20000 548.000
45.40000 528.000
45.60000 511.000
45.80000 547.000
46.00000 596.000
46.20000 621.000
46.40000 513.000
46.60000 515.000
46.80000 469.000
47.00000 498.000
47.20000 486.000
47.40000 443.000
47.60000 487.000
47.80000 526.000
48.00000 447.000
48.20000 505.000
48.40000 450.000
48.60000 449.000
48.80000 484.000
49.00000 451.000
49.20000 475.000
49.40000 464.000
49.60000 419.000
49.80000 474.000
50.00000 439.000
50.20000 478.000
50.40000 479.000
50.60000 484.000
50.80000 482.000
51.00000 479.000
51.20000 462.000
51.40000 467.000
51.60000 497.000
51.80000 505.000
52.00000 515.000
52.20000 465.000
52.40000 463.000
52.60000 426.000
52.80000 435.000
53.00000 420.000
53.20000 475.000
53.40000 458.000
53.60000 430.000
53.80000 441.000
54.00000 440.000
54.20000 447.000
54.40000 467.000
54.60000 409.000
54.80000 442.000
55.00000 443.000
55.20000 484.000
55.40000 420.000
55.60000 449.000
55.80000 451.000
56.00000 439.000
56.20000 445.000
56.40000 418.000
56.60000 440.000
56.80000 426.000
57.00000 467.000
57.20000 406.000
57.40000 428.000
57.60000 436.000
57.80000 455.000
58.00000 439.000
58.20000 424.000
58.40000 459.000
58.60000 418.000
58.80000 432.000
59.00000 424.000
59.20000 473.000
59.40000 390.000
59.60000 434.000
59.80000 454.000
59.92000 420.000

File: 48.xy
5.00000 1475.000
5.20000 1403.000
5.40000 1388.000
5.60000 1350.000
5.80000 1218.000
6.00000 1252.000
6.20000 1206.000
6.40000 1174.000
6.60000 1100.000
6.80000 1103.000
7.00000 1039.000
7.20000 1042.000
7.40000 978.000
7.60000 1001.000
7.80000 934.000
8.00000 950.000
8.20000 956.000
8.40000 961.000
8.60000 891.000
8.80000 805.000
9.00000 846.000
9.20000 794.000
9.40000 762.000
9.60000 755.000
9.80000 783.000
10.00000 760.000
10.20000 746.000
10.40000 780.000
10.60000 730.000
10.80000 734.000
11.00000 755.000
11.20000 735.000
11.40000 721.000
11.60000 764.000
11.80000 732.000
12.00000 810.000
12.20000 827.000
12.40000 805.000
12.60000 893.000
12.80000 1023.000
13.00000 903.000
13.20000 790.000
13.40000 671.000
13.60000 654.000
13.80000 644.000
14.00000 693.000
14.20000 664.000
14.40000 644.000
14.60000 673.000
14.80000 710.000
15.00000 634.000
15.20000 669.000
15.40000 667.000
15.60000 651.000
15.80000 696.000
16.00000 738.000
16.20000 706.000
16.40000 772.000
16.60000 752.000
16.80000 830.000
17.00000 779.000
17.20000 780.000
17.40000 778.000
17.60000 777.000
17.80000 873.000
18.00000 792.000
18.20000 841.000
18.40000 865.000
18.60000 856.000
18.80000 976.000
19.00000 895.000
19.20000 900.000
19.40000 939.000
19.60000 931.000
19.80000 974.000
20.00000 970.000
20.20000 1019.000
20.40000 1060.000
20.60000 1059.000
20.80000 1140.000
21.00000 1195.000
21.20000 1255.000
21.40000 1172.000
21.60000 1106.000
21.80000 1159.000
22.00000 1197.000
22.20000 1151.000
22.40000 1158.000
22.60000 1200.000
22.80000 1217.000
23.00000 1238.000
23.20000 1300.000
23.40000 1244.000
23.60000 1267.000
23.80000 1297.000
24.00000 1259.000
24.20000 1370.000
24.40000 1447.000
24.60000 1382.000
24.80000 1411.000
25.00000 1559.000
25.20000 1891.000
25.40000 1925.000
25.60000 1643.000
25.80000 1620.000
26.00000 1667.000
26.20000 1373.000
26.40000 1227.000
26.60000 1209.000
26.80000 1214.000
27.00000 1214.000
27.20000 1240.000
27.40000 1379.000
27.60000 1510.000
27.80000 1437.000
28.00000 1219.000
28.20000 1180.000
28.40000 1158.000
28.60000 1128.000
28.80000 1104.000
29.00000 1095.000
29.20000 1089.000
29.40000 1120.000
29.60000 1216.000
29.80000 1409.000
30.00000 1298.000
30.20000 1154.000
30.40000 1099.000
30.60000 997.000
30.80000 977.000
31.00000 1012.000
31.20000 990.000
31.40000 1018.000
31.60000 937.000
31.80000 960.000
32.00000 1019.000
32.20000 1040.000
32.40000 1134.000
32.60000 1151.000
32.80000 1056.000
33.00000 906.000
33.20000 950.000
33.40000 864.000
33.60000 839.000
33.80000 800.000
34.00000 803.000
34.20000 727.000
34.40000 733.000
34.60000 767.000
34.80000 738.000
35.00000 686.000
35.20000 645.000
35.40000 661.000
35.60000 675.000
35.80000 692.000
36.00000 629.000
36.20000 632.000
36.40000 599.000
36.60000 637.000
36.80000 651.000
37.00000 621.000
37.20000 599.000
37.40000 593.000
37.60000 601.000
37.80000 555.000
38.00000 579.000
38.20000 609.000
38.40000 556.000
38.60000 586.000
38.80000 591.000
39.00000 602.000
39.20000 517.000
39.40000 556.000
39.60000 551.000
39.80000 496.000
40.00000 546.000
40.20000 529.000
40.40000 507.000
40.60000 597.000
40.80000 569.000
41.00000 561.000
41.20000 542.000
41.40000 566.000
41.60000 510.000
41.80000 541.000
42.00000 542.000
42.20000 635.000
42.40000 602.000
42.60000 643.000
42.80000 627.000
43.00000 713.000
43.20000 711.000
43.40000 599.000
43.60000 577.000
43.80000 500.000
44.00000 502.000
44.20000 570.000
44.40000 491.000
44.60000 485.000
44.80000 499.000
45.00000 502.000
45.20000 493.000
45.40000 535.000
45.60000 511.000
45.80000 547.000
46.00000 566.000
46.20000 571.000
46.40000 487.000
46.60000 511.000
46.80000 510.000
47.00000 450.000
47.20000 457.000
47.40000 467.000
47.60000 485.000
47.80000 462.000
48.00000 474.000
48.20000 524.000
48.40000 503.000
48.60000 458.000
48.80000 465.000
49.00000 465.000
49.20000 489.000
49.40000 461.000
49.60000 485.000
49.80000 468.000
50.00000 470.000
50.20000 504.000
50.40000 462.000
50.60000 499.000
50.80000 521.000
51.00000 495.000
51.20000 480.000
51.40000 502.000
51.60000 484.000
51.80000 489.000
52.00000 468.000
52.20000 450.000
52.40000 474.000
52.60000 451.000
52.80000 426.000
53.00000 441.000
53.20000 469.000
53.40000 481.000
53.60000 460.000
53.80000 426.000
54.00000 422.000
54.20000 423.000
54.40000 464.000
54.60000 468.000
54.80000 498.000
55.00000 454.000
55.20000 448.000
55.40000 460.000
55.60000 496.000
55.80000 407.000
56.00000 449.000
56.20000 402.000
56.40000 448.000
56.60000 439.000
56.80000 449.000
57.00000 410.000
57.20000 441.000
57.40000 421.000
57.60000 446.000
57.80000 424.000
58.00000 431.000
58.20000 426.000
58.40000 427.000
58.60000 408.000
58.80000 435.000
59.00000 421.000
59.20000 447.000
59.40000 432.000
59.60000 420.000
59.80000 455.000
59.92000 410.000

File: 49.xy
5.00000 1539.000
5.20000 1353.000
5.40000 1317.000
5.60000 1307.000
5.80000 1169.000
6.00000 1208.000
6.20000 1073.000
6.40000 1131.000
6.60000 1043.000
6.80000 1038.000
7.00000 1016.000
7.20000 939.000
7.40000 944.000
7.60000 980.000
7.80000 957.000
8.00000 994.000
8.20000 965.000
8.40000 1009.000
8.60000 958.000
8.80000 862.000
9.00000 815.000
9.20000 795.000
9.40000 788.000
9.60000 757.000
9.80000 734.000
10.00000 783.000
10.20000 750.000
10.40000 739.000
10.60000 696.000
10.80000 678.000
11.00000 671.000
11.20000 700.000
11.40000 683.000
11.60000 671.000
11.80000 738.000
12.00000 779.000
12.20000 836.000
12.40000 771.000
12.60000 843.000
12.80000 912.000
13.00000 877.000
13.20000 728.000
13.40000 686.000
13.60000 595.000
13.80000 645.000
14.00000 683.000
14.20000 588.000
14.40000 619.000
14.60000 724.000
14.80000 706.000
15.00000 658.000
15.20000 718.000
15.40000 655.000
15.60000 702.000
15.80000 710.000
16.00000 725.000
16.20000 761.000
16.40000 747.000
16.60000 800.000
16.80000 881.000
17.00000 740.000
17.20000 825.000
17.40000 779.000
17.60000 825.000
17.80000 818.000
18.00000 820.000
18.20000 788.000
18.40000 836.000
18.60000 882.000
18.80000 938.000
19.00000 883.000
19.20000 913.000
19.40000 936.000
19.60000 931.000
19.80000 945.000
20.00000 975.000
20.20000 1022.000
20.40000 1042.000
20.60000 993.000
20.80000 1125.000
21.00000 1138.000
21.20000 1189.000
21.40000 1151.000
21.60000 1150.000
21.80000 1100.000
22.00000 1188.000
22.20000 1149.000
22.40000 1204.000
22.60000 1189.000
22.80000 1209.000
23.00000 1325.000
23.20000 1214.000
23.40000 1210.000
23.60000 1201.000
23.80000 1294.000
24.00000 1307.000
24.20000 1341.000
24.40000 1433.000
24.60000 1402.000
24.80000 1465.000
25.00000 1561.000
25.20000 1931.000
25.40000 2031.000
25.60000 1877.000
25.80000 1686.000
26.00000 1636.000
26.20000 1425.000
26.40000 1283.000
26.60000 1225.000
26.80000 1206.000
27.00000 1216.000
27.20000 1228.000
27.40000 1429.000
27.60000 1488.000
27.80000 1446.000
28.00000 1260.000
28.20000 1207.000
28.40000 1184.000
28.60000 1114.000
28.80000 1108.000
29.00000 1095.000
29.20000 1102.000
29.40000 1152.000
29.60000 1191.000
29.80000 1370.000
30.00000 1338.000
30.20000 1183.000
30.40000 1101.000
30.60000 1078.000
30.80000 1003.000
31.00000 968.000
31.20000 987.000
31.40000 973.000
31.60000 946.000
31.80000 940.000
32.00000 976.000
32.20000 1017.000
32.40000 1061.000
32.60000 1185.000
32.80000 1069.000
33.00000 984.000
33.20000 943.000
33.40000 864.000
33.60000 807.000
33.80000 819.000
34.00000 802.000
34.20000 805.000
34.40000 746.000
34.60000 711.000
34.80000 682.000
35.00000 732.000
35.20000 695.000
35.40000 669.000
35.60000 669.000
35.80000 665.000
36.00000 622.000
36.20000 662.000
36.40000 624.000
36.60000 638.000
36.80000 630.000
37.00000 582.000
37.20000 627.000
37.40000 575.000
37.60000 560.000
37.80000 580.000
38.00000 551.000
38.20000 540.000
38.40000 560.000
38.60000 600.000
38.80000 597.000
39.00000 579.000
39.20000 615.000
39.40000 581.000
39.60000 569.000
39.80000 574.000
40.00000 527.000
40.20000 519.000
40.40000 543.000
40.60000 524.000
40.80000 499.000
41.00000 564.000
41.20000 585.000
41.40000 548.000
41.60000 474.000
41.80000 549.000
42.00000 546.000
42.20000 567.000
42.40000 588.000
42.60000 584.000
42.80000 626.000
43.00000 647.000
43.20000 655.000
43.40000 628.000
43.60000 594.000
43.80000 513.000
44.00000 553.000
44.20000 522.000
44.40000 523.000
44.60000 514.000
44.80000 510.000
45.00000 519.000
45.20000 543.000
45.40000 549.000
45.60000 534.000
45.80000 500.000
46.00000 598.000
46.20000 582.000
46.40000 533.000
46.60000 517.000
46.80000 535.000
47.00000 479.000
47.20000 465.000
47.40000 433.000
47.60000 455.000
47.80000 462.000
48.00000 467.000
48.20000 428.000
48.40000 471.000
48.60000 470.000
48.80000 462.000
49.00000 501.000
49.20000 471.000
49.40000 430.000
49.60000 457.000
49.80000 431.000
50.00000 530.000
50.20000 464.000
50.40000 489.000
50.60000 484.000
50.80000 542.000
51.00000 488.000
51.20000 474.000
51.40000 464.000
51.60000 452.000
51.80000 487.000
52.00000 527.000
52.20000 519.000
52.40000 513.000
52.60000 453.000
52.80000 419.000
53.00000 431.000
53.20000 444.000
53.40000 433.000
53.60000 458.000
53.80000 431.000
54.00000 487.000
54.20000 441.000
54.40000 449.000
54.60000 412.000
54.80000 450.000
55.00000 465.000
55.20000 488.000
55.40000 413.000
55.60000 438.000
55.80000 463.000
56.00000 439.000
56.20000 434.000
56.40000 446.000
56.60000 429.000
56.80000 447.000
57.00000 438.000
57.20000 425.000
57.40000 440.000
57.60000 457.000
57.80000 408.000
58.00000 434.000
58.20000 417.000
58.40000 401.000
58.60000 457.000
58.80000 447.000
59.00000 471.000
59.20000 445.000
59.40000 449.000
59.60000 462.000
59.80000 449.000
59.92000 446.000

File: 50.xy
5.00000 1489.000
5.20000 1484.000
5.40000 1349.000
5.60000 1326.000
5.80000 1274.000
6.00000 1290.000
6.20000 1195.000
6.40000 1188.000
6.60000 1164.000
6.80000 1155.000
7.00000 1091.000
7.20000 1075.000
7.40000 1025.000
7.60000 1020.000
7.80000 991.000
8.00000 1010.000
8.20000 1082.000
8.40000 1051.000
8.60000 905.000
8.80000 895.000
9.00000 853.000
9.20000 896.000
9.40000 871.000
9.60000 884.000
9.80000 821.000
10.00000 804.000
10.20000 818.000
10.40000 819.000
10.60000 809.000
10.80000 713.000
11.00000 811.000
11.20000 739.000
11.40000 760.000
11.60000 760.000
11.80000 796.000
12.00000 858.000
12.20000 884.000
12.40000 839.000
12.60000 919.000
12.80000 1088.000
13.00000 972.000
13.20000 765.000
13.40000 723.000
13.60000 729.000
13.80000 664.000
14.00000 697.000
14.20000 659.000
14.40000 736.000
14.60000 758.000
14.80000 706.000
15.00000 772.000
15.20000 726.000
15.40000 766.000
15.60000 746.000
15.80000 740.000
16.00000 730.000
16.20000 755.000
16.40000 753.000
16.60000 854.000
16.80000 840.000
17.00000 809.000
17.20000 846.000
17.40000 886.000
17.60000 931.000
17.80000 852.000
18.00000 852.000
18.20000 908.000
18.40000 925.000
18.60000 900.000
18.80000 956.000
19.00000 974.000
19.20000 960.000
19.40000 1017.000
19.60000 1014.000
19.80000 1006.000
20.00000 1067.000
20.20000 1068.000
20.40000 1113.000
20.60000 1085.000
20.80000 1147.000
21.00000 1254.000
21.20000 1238.000
21.40000 1164.000
21.60000 1152.000
21.80000 1138.000
22.00000 1235.000
22.20000 1216.000
22.40000 1168.000
22.60000 1240.000
22.80000 1196.000
23.00000 1248.000
23.20000 1296.000
23.40000 1224.000
23.60000 1208.000
23.80000 1307.000
24.00000 1320.000
24.20000 1374.000
24.40000 1469.000
24.60000 1437.000
24.80000 1430.000
25.00000 1563.000
25.20000 1869.000
25.40000 2074.000
25.60000 1828.000
25.80000 1863.000
26.00000 1971.000
26.20000 1492.000
26.40000 1252.000
26.60000 1178.000
26.80000 1254.000
27.00000 1304.000
27.20000 1360.000
27.40000 1503.000
27.60000 1813.000
27.80000 1676.000
28.00000 1352.000
28.20000 1227.000
28.40000 1250.000
28.60000 1270.000
28.80000 1155.000
29.00000 1131.000
29.20000 1107.000
29.40000 1166.000
29.60000 1294.000
29.80000 1573.000
30.00000 1644.000
30.20000 1179.000
30.40000 1112.000
30.60000 1052.000
30.80000 1013.000
31.00000 1021.000
31.20000 1017.000
31.40000 987.000
31.60000 978.000
31.80000 1067.000
32.00000 1032.000
32.20000 1034.000
32.40000 1194.000
32.60000 1327.000
32.80000 1192.000
33.00000 1079.000
33.20000 969.000
33.40000 943.000
33.60000 886.000
33.80000 892.000
34.00000 853.000
34.20000 758.000
34.40000 824.000
34.60000 769.000
34.80000 798.000
35.00000 775.000
35.20000 766.000
35.40000 797.000
35.60000 721.000
35.80000 727.000
36.00000 723.000
36.20000 689.000
36.40000 710.000
36.60000 659.000
36.80000 710.000
37.00000 690.000
37.20000 682.000
37.40000 651.000
37.60000 640.000
37.80000 640.000
38.00000 621.000
38.20000 643.000
38.40000 599.000
38.60000 605.000
38.80000 709.000
39.00000 716.000
39.20000 669.000
39.40000 606.000
39.60000 602.000
39.80000 616.000
40.00000 579.000
40.20000 621.000
40.40000 575.000
40.60000 614.000
40.80000 616.000
41.00000 612.000
41.20000 605.000
41.40000 610.000
41.60000 609.000
41.80000 634.000
42.00000 604.000
42.20000 632.000
42.40000 755.000
42.60000 721.000
42.80000 690.000
43.00000 760.000
43.20000 874.000
43.40000 712.000
43.60000 615.000
43.80000 599.000
44.00000 590.000
44.20000 639.000
44.40000 665.000
44.60000 677.000
44.80000 642.000
45.00000 596.000
45.20000 608.000
45.40000 539.000
45.60000 542.000
45.80000 635.000
46.00000 632.000
46.20000 691.000
46.40000 626.000
46.60000 572.000
46.80000 601.000
47.00000 583.000
47.20000 554.000
47.40000 555.000
47.60000 566.000
47.80000 542.000
48.00000 559.000
48.20000 563.000
48.40000 491.000
48.60000 519.000
48.80000 599.000
49.00000 529.000
49.20000 551.000
49.40000 523.000
49.60000 522.000
49.80000 567.000
50.00000 544.000
50.20000 548.000
50.40000 550.000
50.60000 639.000
50.80000 630.000
51.00000 570.000
51.20000 554.000
51.40000 538.000
51.60000 531.000
51.80000 520.000
52.00000 577.000
52.20000 592.000
52.40000 585.000
52.60000 568.000
52.80000 504.000
53.00000 527.000
53.20000 514.000
53.40000 550.000
53.60000 527.000
53.80000 543.000
54.00000 535.000
54.20000 564.000
54.40000 500.000
54.60000 511.000
54.80000 524.000
55.00000 515.000
55.20000 501.000
55.40000 573.000
55.60000 557.000
55.80000 469.000
56.00000 514.000
56.20000 553.000
56.40000 492.000
56.60000 451.000
56.80000 552.000
57.00000 532.000
57.20000 497.000
57.40000 497.000
57.60000 506.000
57.80000 517.000
58.00000 507.000
58.20000 497.000
58.40000 531.000
58.60000 517.000
58.80000 515.000
59.00000 491.000
59.20000 505.000
59.40000 514.000
59.60000 531.000
59.80000 523.000
59.92000 485.000