Folder: campaign1/XRD (part 11)

File: 57.xy
5.00000 1443.000
5.20000 1340.000
5.40000 1339.000
5.60000 1254.000
5.80000 1224.000
6.00000 1192.000
6.20000 1091.000
6.40000 1135.000
6.60000 1083.000
6.80000 1055.000
7.00000 1042.000
7.20000 987.000
7.40000 1019.000
7.60000 900.000
7.80000 909.000
8.00000 898.000
8.20000 873.000
8.40000 938.000
8.60000 929.000
8.80000 869.000
9.00000 809.000
9.20000 865.000
9.40000 802.000
9.60000 732.000
9.80000 754.000
10.00000 739.000
10.20000 779.000
10.40000 801.000
10.60000 741.000
10.80000 760.000
11.00000 681.000
11.20000 694.000
11.40000 723.000
11.60000 673.000
11.80000 684.000
12.00000 769.000
12.20000 755.000
12.40000 727.000
12.60000 733.000
12.80000 710.000
13.00000 628.000
13.20000 683.000
13.40000 687.000
13.60000 650.000
13.80000 708.000
14.00000 701.000
14.20000 687.000
14.40000 717.000
14.60000 767.000
14.80000 771.000
15.00000 889.000
15.20000 853.000
15.40000 719.000
15.60000 766.000
15.80000 746.000
16.00000 710.000
16.20000 782.000
16.40000 739.000
16.60000 778.000
16.80000 818.000
17.00000 855.000
17.20000 959.000
17.40000 1050.000
17.60000 909.000
17.80000 840.000
18.00000 847.000
18.20000 874.000
18.40000 909.000
18.60000 926.000
18.80000 942.000
19.00000 921.000
19.20000 1013.000
19.40000 1013.000
19.60000 975.000
19.80000 1046.000
20.00000 1053.000
20.20000 1121.000
20.40000 1103.000
20.60000 1160.000
20.80000 1178.000
21.00000 1172.000
21.20000 1288.000
21.40000 1498.000
21.60000 1400.000
21.80000 1231.000
22.00000 1252.000
22.20000 1263.000
22.40000 1253.000
22.60000 1219.000
22.80000 1322.000
23.00000 1294.000
23.20000 1248.000
23.40000 1337.000
23.60000 1299.000
23.80000 1317.000
24.00000 1279.000
24.20000 1256.000
24.40000 1294.000
24.60000 1317.000
24.80000 1268.000
25.00000 1328.000
25.20000 1276.000
25.40000 1338.000
25.60000 1301.000
25.80000 1409.000
26.00000 1655.000
26.20000 2096.000
26.40000 1797.000
26.60000 1449.000
26.80000 1398.000
27.00000 1277.000
27.20000 1266.000
27.40000 1249.000
27.60000 1192.000
27.80000 1253.000
28.00000 1210.000
28.20000 1187.000
28.40000 1143.000
28.60000 1179.000
28.80000 1156.000
29.00000 1124.000
29.20000 1195.000
29.40000 1229.000
29.60000 1183.000
29.80000 1139.000
30.00000 1164.000
30.20000 1231.000
30.40000 1449.000
30.60000 1427.000
30.80000 1258.000
31.00000 1105.000
31.20000 1010.000
31.40000 1054.000
31.60000 1016.000
31.80000 1000.000
32.00000 1002.000
32.20000 936.000
32.40000 961.000
32.60000 889.000
32.80000 952.000
33.00000 865.000
33.20000 866.000
33.40000 888.000
33.60000 854.000
33.80000 872.000
34.00000 776.000
34.20000 874.000
34.40000 856.000
34.60000 761.000
34.80000 771.000
35.00000 753.000
35.20000 691.000
35.40000 721.000
35.60000 673.000
35.80000 676.000
36.00000 648.000
36.20000 621.000
36.40000 677.000
36.60000 648.000
36.80000 633.000
37.00000 609.000
37.20000 646.000
37.40000 626.000
37.60000 689.000
37.80000 619.000
38.00000 605.000
38.20000 571.000
38.40000 576.000
38.60000 533.000
38.80000 551.000
39.00000 522.000
39.20000 553.000
39.40000 536.000
39.60000 530.000
39.80000 548.000
40.00000 569.000
40.20000 560.000
40.40000 526.000
40.60000 530.000
40.80000 530.000
41.00000 542.000
41.20000 532.000
41.40000 544.000
41.60000 533.000
41.80000 552.000
42.00000 538.000
42.20000 492.000
42.40000 515.000
42.60000 573.000
42.80000 568.000
43.00000 545.000
43.20000 565.000
43.40000 663.000
43.60000 698.000
43.80000 722.000
44.00000 617.000
44.20000 588.000
44.40000 514.000
44.60000 587.000
44.80000 526.000
45.00000 549.000
45.20000 541.000
45.40000 483.000
45.60000 525.000
45.80000 547.000
46.00000 510.000
46.20000 532.000
46.40000 499.000
46.60000 479.000
46.80000 500.000
47.00000 509.000
47.20000 494.000
47.40000 519.000
47.60000 505.000
47.80000 544.000
48.00000 486.000
48.20000 493.000
48.40000 455.000
48.60000 464.000
48.80000 477.000
49.00000 460.000
49.20000 455.000
49.40000 492.000
49.60000 469.000
49.80000 470.000
50.00000 466.000
50.20000 436.000
50.40000 467.000
50.60000 430.000
50.80000 480.000
51.00000 462.000
51.20000 465.000
51.40000 477.000
51.60000 454.000
51.80000 467.000
52.00000 469.000
52.20000 494.000
52.40000 438.000
52.60000 454.000
52.80000 469.000
53.00000 492.000
53.20000 483.000
53.40000 443.000
53.60000 461.000
53.80000 440.000
54.00000 488.000
54.20000 505.000
54.40000 453.000
54.60000 454.000
54.80000 439.000
55.00000 471.000
55.20000 441.000
55.40000 455.000
55.60000 416.000
55.80000 452.000
56.00000 399.000
56.20000 449.000
56.40000 471.000
56.60000 463.000
56.80000 431.000
57.00000 375.000
57.20000 412.000
57.40000 472.000
57.60000 446.000
57.80000 422.000
58.00000 412.000
58.20000 481.000
58.40000 455.000
58.60000 455.000
58.80000 457.000
59.00000 423.000
59.20000 433.000
59.40000 429.000
59.60000 437.000
59.80000 416.000
59.92000 449.000

File: 58.xy
5.00000 1677.000
5.24000 1467.000
5.48000 1407.000
5.72000 1294.000
5.96000 1225.000
6.20000 1184.000
6.44000 1126.000
6.68000 1102.000
6.92000 1029.000
7.16000 1004.000
7.40000 962.000
7.64000 959.000
7.88000 942.000
8.12000 951.000
8.36000 884.000
8.60000 848.000
8.84000 889.000
9.08000 822.000
9.32000 818.000
9.56000 755.000
9.80000 777.000
10.04000 734.000
10.28000 734.000
10.52000 697.000
10.76000 705.000
11.00000 727.000
11.24000 712.000
11.48000 666.000
11.72000 672.000
11.96000 741.000
12.20000 825.000
12.44000 771.000
12.68000 640.000
12.92000 639.000
13.16000 661.000
13.40000 678.000
13.64000 655.000
13.88000 664.000
14.12000 697.000
14.36000 683.000
14.60000 745.000
14.84000 726.000
15.08000 861.000
15.32000 826.000
15.56000 750.000
15.80000 705.000
16.04000 748.000
16.28000 733.000
16.52000 781.000
16.76000 760.000
17.00000 769.000
17.24000 846.000
17.48000 922.000
17.72000 941.000
17.96000 787.000
18.20000 909.000
18.44000 886.000
18.68000 864.000
18.92000 907.000
19.16000 904.000
19.40000 892.000
19.64000 995.000
19.88000 1005.000
20.12000 996.000
20.36000 1041.000
20.60000 1079.000
20.84000 1088.000
21.08000 1044.000
21.32000 1185.000
21.56000 1398.000
21.80000 1293.000
22.04000 1238.000
22.28000 1237.000
22.52000 1253.000
22.76000 1263.000
23.00000 1200.000
23.24000 1249.000
23.48000 1264.000
23.72000 1222.000
23.96000 1223.000
24.20000 1206.000
24.44000 1195.000
24.68000 1236.000
24.92000 1181.000
25.16000 1263.000
25.40000 1290.000
25.64000 1227.000
25.88000 1306.000
26.12000 1410.000
26.36000 1660.000
26.60000 1691.000
26.84000 1356.000
27.08000 1179.000
27.32000 1241.000
27.56000 1150.000
27.80000 1175.000
28.04000 1193.000
28.28000 1123.000
28.52000 1110.000
28.76000 1116.000
29.00000 1098.000
29.24000 1100.000
29.48000 1100.000
29.72000 1098.000
29.96000 1101.000
30.20000 1162.000
30.44000 1291.000
30.68000 1420.000
30.92000 1289.000
31.16000 1098.000
31.40000 1041.000
31.64000 976.000
31.88000 983.000
32.12000 930.000
32.36000 871.000
32.60000 891.000
32.84000 937.000
33.08000 803.000
33.32000 844.000
33.56000 846.000
33.80000 848.000
34.04000 813.000
34.28000 760.000
34.52000 780.000
34.76000 697.000
35.00000 722.000
35.24000 691.000
35.48000 667.000
35.72000 666.000
35.96000 594.000
36.20000 628.000
36.44000 602.000
36.68000 607.000
36.92000 608.000
37.16000 565.000
37.40000 563.000
37.64000 594.000
37.88000 611.000
38.12000 622.000
38.36000 573.000
38.60000 565.000
38.84000 492.000
39.08000 543.000
39.32000 538.000
39.56000 499.000
39.80000 533.000
40.04000 509.000
40.28000 516.000
40.52000 497.000
40.76000 501.000
41.00000 529.000
41.24000 510.000
41.48000 483.000
41.72000 535.000
41.96000 576.000
42.20000 485.000
42.44000 491.000
42.68000 510.000
42.92000 476.000
43.16000 529.000
43.40000 530.000
43.64000 596.000
43.88000 675.000
44.12000 670.000
44.36000 541.000
44.60000 565.000
44.84000 550.000
45.08000 560.000
45.32000 538.000
45.56000 506.000
45.80000 465.000
46.04000 496.000
46.28000 509.000
46.52000 482.000
46.76000 487.000
47.00000 456.000
47.24000 481.000
47.48000 471.000
47.72000 493.000
47.96000 472.000
48.20000 477.000
48.44000 477.000
48.68000 445.000
48.92000 437.000
49.16000 428.000
49.40000 438.000
49.64000 449.000
49.88000 418.000
50.12000 461.000
50.36000 432.000
50.60000 464.000
50.84000 429.000
51.08000 426.000
51.32000 431.000
51.56000 415.000
51.80000 445.000
52.04000 430.000
52.28000 484.000
52.52000 454.000
52.76000 400.000
53.00000 443.000
53.24000 454.000
53.48000 466.000
53.72000 411.000
53.96000 442.000
54.20000 423.000
54.44000 451.000
54.68000 474.000
54.92000 430.000
55.16000 412.000
55.40000 431.000
55.64000 436.000
55.88000 429.000
56.12000 412.000
56.36000 415.000
56.60000 403.000
56.84000 435.000
57.08000 425.000
57.32000 462.000
57.56000 431.000
57.80000 418.000
58.04000 460.000
58.28000 406.000
58.52000 444.000
58.76000 411.000
59.00000 430.000
59.24000 459.000
59.48000 453.000
59.72000 437.000
59.96000 470.000
60.20000 407.000
60.44000 380.000
60.68000 406.000
60.92000 430.000
61.16000 382.000
61.40000 438.000
61.64000 418.000
61.88000 399.000
62.12000 422.000
62.36000 444.000
62.60000 414.000
62.84000 402.000
63.08000 364.000
63.32000 419.000
63.56000 415.000
63.80000 411.000
64.04000 420.000
64.28000 396.000
64.52000 407.000
64.76000 417.000
65.00000 367.000
65.24000 392.000
65.48000 421.000
65.72000 372.000
65.96000 400.000
66.20000 364.000
66.44000 405.000
66.68000 408.000
66.92000 372.000
67.16000 372.000
67.40000 345.000
67.64000 394.000
67.88000 344.000
68.12000 378.000
68.36000 374.000
68.60000 360.000
68.84000 403.000
69.08000 346.000
69.32000 345.000
69.56000 375.000
69.80000 345.000
69.92000 410.000

File: 59.xy
5.00000 1454.000
5.24000 1365.000
5.48000 1339.000
5.72000 1214.000
5.96000 1267.000
6.20000 1132.000
6.44000 1075.000
6.68000 1078.000
6.92000 1022.000
7.16000 1000.000
7.40000 981.000
7.64000 1015.000
7.88000 978.000
8.12000 933.000
8.36000 880.000
8.60000 858.000
8.84000 908.000
9.08000 826.000
9.32000 794.000
9.56000 808.000
9.80000 702.000
10.04000 772.000
10.28000 697.000
10.52000 762.000
10.76000 732.000
11.00000 732.000
11.24000 711.000
11.48000 718.000
11.72000 662.000
11.96000 724.000
12.20000 730.000
12.44000 738.000
12.68000 717.000
12.92000 669.000
13.16000 641.000
13.40000 677.000
13.64000 693.000
13.88000 659.000
14.12000 675.000
14.36000 696.000
14.60000 689.000
14.84000 775.000
15.08000 843.000
15.32000 813.000
15.56000 831.000
15.80000 733.000
16.04000 706.000
16.28000 693.000
16.52000 731.000
16.76000 778.000
17.00000 737.000
17.24000 829.000
17.48000 842.000
17.72000 909.000
17.96000 873.000
18.20000 855.000
18.44000 875.000
18.68000 897.000
18.92000 915.000
19.16000 900.000
19.40000 943.000
19.64000 952.000
19.88000 998.000
20.12000 975.000
20.36000 1027.000
20.60000 1045.000
20.84000 1041.000
21.08000 1096.000
21.32000 1207.000
21.56000 1304.000
21.80000 1536.000
22.04000 1280.000
22.28000 1201.000
22.52000 1138.000
22.76000 1199.000
23.00000 1144.000
23.24000 1215.000
23.48000 1239.000
23.72000 1268.000
23.96000 1158.000
24.20000 1251.000
24.44000 1268.000
24.68000 1223.000
24.92000 1217.000
25.16000 1235.000
25.40000 1152.000
25.64000 1217.000
25.88000 1257.000
26.12000 1209.000
26.36000 1403.000
26.60000 1763.000
26.84000 1733.000
27.08000 1446.000
27.32000 1227.000
27.56000 1223.000
27.80000 1114.000
28.04000 1144.000
28.28000 1159.000
28.52000 1156.000
28.76000 1152.000
29.00000 1071.000
29.24000 1130.000
29.48000 1059.000
29.72000 1098.000
29.96000 1034.000
30.20000 1074.000
30.44000 1133.000
30.68000 1279.000
30.92000 1488.000
31.16000 1369.000
31.40000 1040.000
31.64000 945.000
31.88000 932.000
32.12000 909.000
32.36000 909.000
32.60000 903.000
32.84000 860.000
33.08000 833.000
33.32000 846.000
33.56000 772.000
33.80000 737.000
34.04000 797.000
34.28000 745.000
34.52000 771.000
34.76000 754.000
35.00000 726.000
35.24000 706.000
35.48000 677.000
35.72000 641.000
35.96000 621.000
36.20000 593.000
36.44000 606.000
36.68000 609.000
36.92000 520.000
37.16000 582.000
37.40000 546.000
37.64000 565.000
37.88000 549.000
38.12000 646.000
38.36000 634.000
38.60000 515.000
38.84000 541.000
39.08000 526.000
39.32000 525.000
39.56000 516.000
39.80000 527.000
40.04000 511.000
40.28000 537.000
40.52000 492.000
40.76000 510.000
41.00000 551.000
41.24000 552.000
41.48000 494.000
41.72000 502.000
41.96000 515.000
42.20000 509.000
42.44000 496.000
42.68000 521.000
42.92000 527.000
43.16000 501.000
43.40000 544.000
43.64000 552.000
43.88000 573.000
44.12000 644.000
44.36000 724.000
44.60000 664.000
44.84000 571.000
45.08000 548.000
45.32000 507.000
45.56000 556.000
45.80000 506.000
46.04000 485.000
46.28000 465.000
46.52000 517.000
46.76000 450.000
47.00000 506.000
47.24000 466.000
47.48000 423.000
47.72000 451.000
47.96000 478.000
48.20000 418.000
48.44000 424.000
48.68000 430.000
48.92000 452.000
49.16000 455.000
49.40000 447.000
49.64000 450.000
49.88000 471.000
50.12000 437.000
50.36000 439.000
50.60000 431.000
50.84000 442.000
51.08000 437.000
51.32000 437.000
51.56000 427.000
51.80000 418.000
52.04000 465.000
52.28000 444.000
52.52000 469.000
52.76000 448.000
53.00000 439.000
53.24000 412.000
53.48000 431.000
53.72000 465.000
53.96000 411.000
54.20000 418.000
54.44000 457.000
54.68000 452.000
54.92000 469.000
55.16000 489.000
55.40000 454.000
55.64000 430.000
55.88000 408.000
56.12000 449.000
56.36000 464.000
56.60000 454.000
56.84000 414.000
57.08000 446.000
57.32000 406.000
57.56000 431.000
57.80000 393.000
58.04000 391.000
58.28000 412.000
58.52000 390.000
58.76000 419.000
59.00000 383.000
59.24000 389.000
59.48000 416.000
59.72000 431.000
59.96000 439.000
60.20000 414.000
60.44000 419.000
60.68000 426.000
60.92000 427.000
61.16000 375.000
61.40000 434.000
61.64000 416.000
61.88000 378.000
62.12000 411.000
62.36000 418.000
62.60000 409.000
62.84000 438.000
63.08000 397.000
63.32000 403.000
63.56000 427.000
63.80000 404.000
64.04000 409.000
64.28000 385.000
64.52000 407.000
64.76000 401.000
65.00000 411.000
65.24000 422.000
65.48000 385.000
65.72000 348.000
65.96000 392.000
66.20000 386.000
66.44000 378.000
66.68000 372.000
66.92000 385.000
67.16000 384.000
67.40000 362.000
67.64000 392.000
67.88000 357.000
68.12000 334.000
68.36000 351.000
68.60000 374.000
68.84000 362.000
69.08000 347.000
69.32000 372.000
69.56000 338.000
69.80000 378.000
69.92000 366.000

File: 60.xy
5.00000 1434.000
5.24000 1369.000
5.48000 1216.000
5.72000 1280.000
5.96000 1181.000
6.20000 1080.000
6.44000 1091.000
6.68000 1075.000
6.92000 1041.000
7.16000 1058.000
7.40000 942.000
7.64000 924.000
7.88000 998.000
8.12000 923.000
8.36000 881.000
8.60000 922.000
8.84000 889.000
9.08000 955.000
9.32000 791.000
9.56000 742.000
9.80000 760.000
10.04000 716.000
10.28000 756.000
10.52000 715.000
10.76000 740.000
11.00000 668.000
11.24000 699.000
11.48000 667.000
11.72000 674.000
11.96000 672.000
12.20000 702.000
12.44000 720.000
12.68000 751.000
12.92000 674.000
13.16000 696.000
13.40000 613.000
13.64000 664.000
13.88000 651.000
14.12000 643.000
14.36000 662.000
14.60000 713.000
14.84000 692.000
15.08000 750.000
15.32000 880.000
15.56000 850.000
15.80000 770.000
16.04000 677.000
16.28000 722.000
16.52000 667.000
16.76000 717.000
17.00000 746.000
17.24000 781.000
17.48000 878.000
17.72000 1017.000
17.96000 1029.000
18.20000 951.000
18.44000 859.000
18.68000 875.000
18.92000 912.000
19.16000 905.000
19.40000 929.000
19.64000 989.000
19.88000 1043.000
20.12000 1023.000
20.36000 1015.000
20.60000 998.000
20.84000 1054.000
21.08000 1176.000
21.32000 1112.000
21.56000 1233.000
21.80000 1466.000
22.04000 1507.000
22.28000 1349.000
22.52000 1260.000
22.76000 1272.000
23.00000 1202.000
23.24000 1219.000
23.48000 1227.000
23.72000 1228.000
23.96000 1217.000
24.20000 1202.000
24.44000 1195.000
24.68000 1213.000
24.92000 1195.000
25.16000 1154.000
25.40000 1247.000
25.64000 1226.000
25.88000 1197.000
26.12000 1203.000
26.36000 1272.000
26.60000 1464.000
26.84000 2087.000
27.08000 1868.000
27.32000 1474.000
27.56000 2055.000
27.80000 1177.000
28.04000 1157.000
28.28000 1207.000
28.52000 1182.000
28.76000 1137.000
29.00000 1107.000
29.24000 1086.000
29.48000 1099.000
29.72000 1135.000
29.96000 1059.000
30.20000 975.000
30.44000 1000.000
30.68000 1105.000
30.92000 1212.000
31.16000 1586.000
31.40000 1434.000
31.64000 1070.000
31.88000 938.000
32.12000 957.000
32.36000 929.000
32.60000 805.000
32.84000 847.000
33.08000 891.000
33.32000 810.000
33.56000 798.000
33.80000 784.000
34.04000 776.000
34.28000 760.000
34.52000 746.000
34.76000 741.000
35.00000 769.000
35.24000 733.000
35.48000 732.000
35.72000 686.000
35.96000 636.000
36.20000 590.000
36.44000 575.000
36.68000 584.000
36.92000 609.000
37.16000 624.000
37.40000 606.000
37.64000 543.000
37.88000 613.000
38.12000 578.000
38.36000 665.000
38.60000 633.000
38.84000 568.000
39.08000 557.000
39.32000 556.000
39.56000 506.000
39.80000 560.000
40.04000 501.000
40.28000 535.000
40.52000 506.000
40.76000 524.000
41.00000 495.000
41.24000 496.000
41.48000 547.000
41.72000 514.000
41.96000 521.000
42.20000 518.000
42.44000 471.000
42.68000 508.000
42.92000 537.000
43.16000 523.000
43.40000 491.000
43.64000 517.000
43.88000 537.000
44.12000 578.000
44.36000 602.000
44.60000 681.000
44.84000 769.000
45.08000 596.000
45.32000 484.000
45.56000 485.000
45.80000 507.000
46.04000 468.000
46.28000 464.000
46.52000 501.000
46.76000 484.000
47.00000 498.000
47.24000 487.000
47.48000 442.000
47.72000 440.000
47.96000 454.000
48.20000 459.000
48.44000 469.000
48.68000 487.000
48.92000 413.000
49.16000 412.000
49.40000 413.000
49.64000 434.000
49.88000 465.000
50.12000 428.000
50.36000 417.000
50.60000 445.000
50.84000 430.000
51.08000 434.000
51.32000 441.000
51.56000 466.000
51.80000 462.000
52.04000 437.000
52.28000 433.000
52.52000 445.000
52.76000 442.000
53.00000 512.000
53.24000 477.000
53.48000 469.000
53.72000 433.000
53.96000 413.000
54.20000 450.000
54.44000 424.000
54.68000 448.000
54.92000 428.000
55.16000 457.000
55.40000 481.000
55.64000 493.000
55.88000 469.000
56.12000 465.000
56.36000 397.000
56.60000 467.000
56.84000 579.000
57.08000 453.000
57.32000 401.000
57.56000 421.000
57.80000 421.000
58.04000 415.000
58.28000 432.000
58.52000 415.000
58.76000 426.000
59.00000 412.000
59.24000 434.000
59.48000 457.000
59.72000 436.000
59.96000 448.000
60.20000 457.000
60.44000 433.000
60.68000 416.000
60.92000 442.000
61.16000 391.000
61.40000 399.000
61.64000 403.000
61.88000 431.000
62.12000 415.000
62.36000 414.000
62.60000 418.000
62.84000 413.000
63.08000 431.000
63.32000 388.000
63.56000 378.000
63.80000 395.000
64.04000 387.000
64.28000 389.000
64.52000 424.000
64.76000 386.000
65.00000 390.000
65.24000 402.000
65.48000 389.000
65.72000 415.000
65.96000 376.000
66.20000 343.000
66.44000 369.000
66.68000 351.000
66.92000 384.000
67.16000 387.000
67.40000 389.000
67.64000 384.000
67.88000 326.000
68.12000 362.000
68.36000 362.000
68.60000 381.000
68.84000 371.000
69.08000 402.000
69.32000 360.000
69.56000 349.000
69.80000 377.000
69.92000 346.000

File: 62.xy
5.00000 4518.000
5.24000 4428.000
5.48000 4216.000
5.72000 4023.000
5.96000 3729.000
6.20000 3790.000
6.44000 3444.000
6.68000 3362.000
6.92000 3233.000
7.16000 3116.000
7.40000 3045.000
7.64000 2818.000
7.88000 2824.000
8.12000 4068.000
8.36000 4768.000
8.60000 2724.000
8.84000 2511.000
9.08000 2424.000
9.32000 2427.000
9.56000 2376.000
9.80000 2203.000
10.04000 2240.000
10.28000 2146.000
10.52000 2235.000
10.76000 2276.000
11.00000 2126.000
11.24000 2057.000
11.48000 2056.000
11.72000 2026.000
11.96000 2153.000
12.20000 2155.000
12.44000 2111.000
12.68000 4033.000
12.92000 3669.000
13.16000 1996.000
13.40000 2006.000
13.64000 2001.000
13.88000 1850.000
14.12000 1965.000
14.36000 1991.000
14.60000 1996.000
14.84000 1990.000
15.08000 2586.000
15.32000 2297.000
15.56000 1924.000
15.80000 2002.000
16.04000 2085.000
16.28000 2616.000
16.52000 9517.000
16.76000 12372.000
17.00000 2539.000
17.24000 2124.000
17.48000 2109.000
17.72000 2114.000
17.96000 2139.000
18.20000 2209.000
18.44000 2296.000
18.68000 2208.000
18.92000 2249.000
19.16000 2393.000
19.40000 2383.000
19.64000 2333.000
19.88000 2484.000
20.12000 2450.000
20.36000 2590.000
20.60000 2754.000
20.84000 2839.000
21.08000 2982.000
21.32000 2853.000
21.56000 2867.000
21.80000 2783.000
22.04000 2803.000
22.28000 2876.000
22.52000 3217.000
22.76000 3344.000
23.00000 2954.000
23.24000 3063.000
23.48000 3153.000
23.72000 3194.000
23.96000 3716.000
24.20000 4521.000
24.44000 4541.000
24.68000 5805.000
24.92000 36657.000
25.16000 141922.000
25.40000 29785.000
25.64000 8122.000
25.88000 9920.000
26.12000 5225.000
26.36000 3473.000
26.60000 2936.000
26.84000 3076.000
27.08000 3217.000
27.32000 3511.000
27.56000 3957.000
27.80000 3077.000
28.04000 2833.000
28.28000 2752.000
28.52000 2690.000
28.76000 2803.000
29.00000 4496.000
29.24000 10577.000
29.48000 7563.000
29.72000 4016.000
29.96000 2997.000
30.20000 2697.000
30.44000 3546.000
30.68000 4860.000
30.92000 2821.000
31.16000 2540.000
31.40000 2374.000
31.64000 2295.000
31.88000 2357.000
32.12000 2514.000
32.36000 3019.000
32.60000 2682.000
32.84000 2415.000
33.08000 2296.000
33.32000 2044.000
33.56000 2060.000
33.80000 1993.000
34.04000 2018.000
34.28000 1843.000
34.52000 1808.000
34.76000 1747.000
35.00000 1706.000
35.24000 1719.000
35.48000 1759.000
35.72000 1599.000
35.96000 1571.000
36.20000 1512.000
36.44000 1521.000
36.68000 1565.000
36.92000 1547.000
37.16000 1463.000
37.40000 1373.000
37.64000 1411.000
37.88000 1370.000
38.12000 1331.000
38.36000 1375.000
38.60000 1595.000
38.84000 1528.000
39.08000 1480.000
39.32000 1423.000
39.56000 1430.000
39.80000 1378.000
40.04000 1388.000
40.28000 1528.000
40.52000 1396.000
40.76000 1311.000
41.00000 1356.000
41.24000 1369.000
41.48000 1347.000
41.72000 1403.000
41.96000 1528.000
42.20000 1771.000
42.44000 4149.000
42.68000 5879.000
42.92000 2386.000
43.16000 1529.000
43.40000 1335.000
43.64000 1368.000
43.88000 1339.000
44.12000 1260.000
44.36000 1293.000
44.60000 1346.000
44.84000 1353.000
45.08000 1353.000
45.32000 1363.000
45.56000 1360.000
45.80000 1514.000
46.04000 1544.000
46.28000 1386.000
46.52000 1315.000
46.76000 1334.000
47.00000 1307.000
47.24000 1189.000
47.48000 1237.000
47.72000 1220.000
47.96000 1205.000
48.20000 1200.000
48.44000 1170.000
48.68000 1220.000
48.92000 1184.000
49.16000 1227.000
49.40000 1203.000
49.64000 1251.000
49.88000 1394.000
50.12000 1467.000
50.36000 1443.000
50.60000 1457.000
50.84000 1449.000
51.08000 1511.000
51.32000 2349.000
51.56000 12840.000
51.80000 16748.000
52.04000 3767.000
52.28000 1580.000
52.52000 1392.000
52.76000 1351.000
53.00000 1639.000
53.24000 1638.000
53.48000 1300.000
53.72000 1176.000
53.96000 1158.000
54.20000 1143.000
54.44000 1177.000
54.68000 1164.000
54.92000 1209.000
55.16000 1217.000
55.40000 1025.000
55.64000 1117.000
55.88000 1128.000
56.12000 1144.000
56.36000 1054.000
56.60000 1097.000
56.84000 1079.000
57.08000 1042.000
57.32000 1071.000
57.56000 1074.000
57.80000 1128.000
58.04000 1163.000
58.28000 1148.000
58.52000 1136.000
58.76000 1153.000
59.00000 1107.000
59.24000 1090.000
59.48000 1158.000
59.72000 1061.000
59.96000 1105.000
60.20000 1069.000
60.44000 1267.000
60.68000 1710.000
60.92000 2038.000
61.16000 1894.000
61.40000 1381.000
61.64000 1081.000
61.88000 1139.000
62.12000 1129.000
62.36000 1143.000
62.60000 1073.000
62.84000 1098.000
63.08000 1022.000
63.32000 1035.000
63.56000 1110.000
63.80000 1200.000
64.04000 1140.000
64.28000 1020.000
64.52000 1080.000
64.76000 1018.000
65.00000 1023.000
65.24000 1056.000
65.48000 1025.000
65.72000 1047.000
65.96000 1016.000
66.20000 1039.000
66.44000 1052.000
66.68000 1069.000
66.92000 987.000
67.16000 1075.000
67.40000 1053.000
67.64000 996.000
67.88000 1028.000
68.12000 960.000
68.36000 1015.000
68.60000 991.000
68.84000 992.000
69.08000 950.000
69.32000 985.000
69.56000 975.000
69.80000 993.000
69.92000 945.000