Folder: campaign1/XRD (part 7)

File: 35.xy
5.00000 1657.000
5.20000 1598.000
5.40000 1607.000
5.60000 1416.000
5.80000 1452.000
6.00000 1395.000
6.20000 1368.000
6.40000 1249.000
6.60000 1255.000
6.80000 1239.000
7.00000 1237.000
7.20000 1234.000
7.40000 1236.000
7.60000 1132.000
7.80000 1217.000
8.00000 1270.000
8.20000 1397.000
8.40000 1329.000
8.60000 1134.000
8.80000 1065.000
9.00000 1102.000
9.20000 1098.000
9.40000 1091.000
9.60000 1086.000
9.80000 1076.000
10.00000 1034.000
10.20000 912.000
10.40000 892.000
10.60000 809.000
10.80000 831.000
11.00000 806.000
11.20000 713.000
11.40000 741.000
11.60000 847.000
11.80000 759.000
12.00000 857.000
12.20000 841.000
12.40000 784.000
12.60000 946.000
12.80000 1031.000
13.00000 824.000
13.20000 725.000
13.40000 679.000
13.60000 684.000
13.80000 624.000
14.00000 667.000
14.20000 693.000
14.40000 662.000
14.60000 709.000
14.80000 709.000
15.00000 713.000
15.20000 714.000
15.40000 738.000
15.60000 708.000
15.80000 690.000
16.00000 752.000
16.20000 710.000
16.40000 769.000
16.60000 943.000
16.80000 898.000
17.00000 777.000
17.20000 833.000
17.40000 845.000
17.60000 761.000
17.80000 791.000
18.00000 896.000
18.20000 934.000
18.40000 893.000
18.60000 935.000
18.80000 892.000
19.00000 971.000
19.20000 964.000
19.40000 1030.000
19.60000 1046.000
19.80000 1038.000
20.00000 998.000
20.20000 1099.000
20.40000 1121.000
20.60000 1189.000
20.80000 1186.000
21.00000 1255.000
21.20000 1171.000
21.40000 1225.000
21.60000 1160.000
21.80000 1177.000
22.00000 1169.000
22.20000 1235.000
22.40000 1232.000
22.60000 1258.000
22.80000 1257.000
23.00000 1207.000
23.20000 1296.000
23.40000 1296.000
23.60000 1281.000
23.80000 1306.000
24.00000 1372.000
24.20000 1502.000
24.40000 1516.000
24.60000 1412.000
24.80000 1577.000
25.00000 1984.000
25.20000 2361.000
25.40000 1851.000
25.60000 1640.000
25.80000 1602.000
26.00000 1466.000
26.20000 1327.000
26.40000 1290.000
26.60000 1215.000
26.80000 1273.000
27.00000 1305.000
27.20000 1264.000
27.40000 1397.000
27.60000 1432.000
27.80000 1326.000
28.00000 1202.000
28.20000 1153.000
28.40000 1185.000
28.60000 1124.000
28.80000 1143.000
29.00000 1110.000
29.20000 1168.000
29.40000 1226.000
29.60000 1375.000
29.80000 1415.000
30.00000 1200.000
30.20000 1090.000
30.40000 1056.000
30.60000 1063.000
30.80000 1032.000
31.00000 1019.000
31.20000 1006.000
31.40000 1004.000
31.60000 980.000
31.80000 1017.000
32.00000 1031.000
32.20000 1071.000
32.40000 1109.000
32.60000 1061.000
32.80000 978.000
33.00000 943.000
33.20000 888.000
33.40000 838.000
33.60000 853.000
33.80000 820.000
34.00000 821.000
34.20000 818.000
34.40000 767.000
34.60000 752.000
34.80000 754.000
35.00000 693.000
35.20000 711.000
35.40000 722.000
35.60000 710.000
35.80000 674.000
36.00000 658.000
36.20000 726.000
36.40000 661.000
36.60000 650.000
36.80000 618.000
37.00000 664.000
37.20000 630.000
37.40000 610.000
37.60000 580.000
37.80000 564.000
38.00000 576.000
38.20000 618.000
38.40000 592.000
38.60000 583.000
38.80000 603.000
39.00000 605.000
39.20000 595.000
39.40000 589.000
39.60000 527.000
39.80000 529.000
40.00000 573.000
40.20000 552.000
40.40000 531.000
40.60000 559.000
40.80000 565.000
41.00000 549.000
41.20000 532.000
41.40000 549.000
41.60000 527.000
41.80000 534.000
42.00000 629.000
42.20000 591.000
42.40000 619.000
42.60000 600.000
42.80000 642.000
43.00000 639.000
43.20000 622.000
43.40000 571.000
43.60000 574.000
43.80000 536.000
44.00000 537.000
44.20000 486.000
44.40000 527.000
44.60000 529.000
44.80000 559.000
45.00000 517.000
45.20000 508.000
45.40000 544.000
45.60000 549.000
45.80000 547.000
46.00000 530.000
46.20000 547.000
46.40000 497.000
46.60000 475.000
46.80000 450.000
47.00000 526.000
47.20000 446.000
47.40000 478.000
47.60000 487.000
47.80000 479.000
48.00000 517.000
48.20000 489.000
48.40000 491.000
48.60000 468.000
48.80000 461.000
49.00000 478.000
49.20000 477.000
49.40000 465.000
49.60000 453.000
49.80000 451.000
50.00000 461.000
50.20000 481.000
50.40000 452.000
50.60000 478.000
50.80000 473.000
51.00000 468.000
51.20000 474.000
51.40000 468.000
51.60000 496.000
51.80000 554.000
52.00000 523.000
52.20000 456.000
52.40000 441.000
52.60000 416.000
52.80000 431.000
53.00000 432.000
53.20000 448.000
53.40000 428.000
53.60000 429.000
53.80000 429.000
54.00000 433.000
54.20000 451.000
54.40000 414.000
54.60000 437.000
54.80000 434.000
55.00000 468.000
55.20000 420.000
55.40000 429.000
55.60000 439.000
55.80000 416.000
56.00000 423.000
56.20000 438.000
56.40000 418.000
56.60000 446.000
56.80000 434.000
57.00000 451.000
57.20000 422.000
57.40000 405.000
57.60000 468.000
57.80000 446.000
58.00000 445.000
58.20000 449.000
58.40000 449.000
58.60000 443.000
58.80000 434.000
59.00000 468.000
59.20000 442.000
59.40000 466.000
59.60000 413.000
59.80000 432.000
59.92000 452.000

File: 36.xy
5.00000 1457.000
5.20000 1384.000
5.40000 1267.000
5.60000 1254.000
5.80000 1172.000
6.00000 1171.000
6.20000 1117.000
6.40000 1129.000
6.60000 1066.000
6.80000 1007.000
7.00000 967.000
7.20000 1024.000
7.40000 912.000
7.60000 922.000
7.80000 982.000
8.00000 942.000
8.20000 968.000
8.40000 1240.000
8.60000 905.000
8.80000 825.000
9.00000 742.000
9.20000 822.000
9.40000 758.000
9.60000 754.000
9.80000 727.000
10.00000 758.000
10.20000 698.000
10.40000 676.000
10.60000 679.000
10.80000 730.000
11.00000 654.000
11.20000 661.000
11.40000 705.000
11.60000 682.000
11.80000 702.000
12.00000 706.000
12.20000 1005.000
12.40000 730.000
12.60000 822.000
12.80000 1156.000
13.00000 1142.000
13.20000 687.000
13.40000 657.000
13.60000 669.000
13.80000 627.000
14.00000 631.000
14.20000 663.000
14.40000 629.000
14.60000 653.000
14.80000 625.000
15.00000 674.000
15.20000 601.000
15.40000 651.000
15.60000 638.000
15.80000 623.000
16.00000 624.000
16.20000 640.000
16.40000 675.000
16.60000 757.000
16.80000 843.000
17.00000 932.000
17.20000 746.000
17.40000 699.000
17.60000 748.000
17.80000 744.000
18.00000 734.000
18.20000 747.000
18.40000 758.000
18.60000 842.000
18.80000 752.000
19.00000 768.000
19.20000 825.000
19.40000 816.000
19.60000 832.000
19.80000 891.000
20.00000 852.000
20.20000 888.000
20.40000 938.000
20.60000 1000.000
20.80000 983.000
21.00000 1039.000
21.20000 1116.000
21.40000 1073.000
21.60000 1020.000
21.80000 989.000
22.00000 1035.000
22.20000 1091.000
22.40000 1034.000
22.60000 1077.000
22.80000 1066.000
23.00000 1136.000
23.20000 1100.000
23.40000 1156.000
23.60000 1138.000
23.80000 1126.000
24.00000 1122.000
24.20000 1175.000
24.40000 1292.000
24.60000 1424.000
24.80000 1399.000
25.00000 1562.000
25.20000 2014.000
25.40000 5287.000
25.60000 7029.000
25.80000 2674.000
26.00000 3223.000
26.20000 2179.000
26.40000 1366.000
26.60000 1204.000
26.80000 1183.000
27.00000 1227.000
27.20000 1276.000
27.40000 1579.000
27.60000 2503.000
27.80000 2415.000
28.00000 1465.000
28.20000 1131.000
28.40000 1135.000
28.60000 1073.000
28.80000 1054.000
29.00000 1043.000
29.20000 1048.000
29.40000 971.000
29.60000 1130.000
29.80000 1460.000
30.00000 1814.000
30.20000 1319.000
30.40000 1049.000
30.60000 922.000
30.80000 884.000
31.00000 946.000
31.20000 871.000
31.40000 865.000
31.60000 914.000
31.80000 899.000
32.00000 884.000
32.20000 980.000
32.40000 996.000
32.60000 1237.000
32.80000 1103.000
33.00000 938.000
33.20000 873.000
33.40000 871.000
33.60000 786.000
33.80000 768.000
34.00000 815.000
34.20000 702.000
34.40000 668.000
34.60000 720.000
34.80000 645.000
35.00000 639.000
35.20000 634.000
35.40000 662.000
35.60000 660.000
35.80000 627.000
36.00000 589.000
36.20000 638.000
36.40000 614.000
36.60000 566.000
36.80000 577.000
37.00000 580.000
37.20000 577.000
37.40000 583.000
37.60000 556.000
37.80000 516.000
38.00000 551.000
38.20000 578.000
38.40000 524.000
38.60000 514.000
38.80000 550.000
39.00000 594.000
39.20000 626.000
39.40000 573.000
39.60000 565.000
39.80000 547.000
40.00000 469.000
40.20000 513.000
40.40000 482.000
40.60000 535.000
40.80000 517.000
41.00000 523.000
41.20000 538.000
41.40000 506.000
41.60000 543.000
41.80000 495.000
42.00000 489.000
42.20000 511.000
42.40000 580.000
42.60000 661.000
42.80000 585.000
43.00000 665.000
43.20000 858.000
43.40000 794.000
43.60000 570.000
43.80000 536.000
44.00000 480.000
44.20000 516.000
44.40000 534.000
44.60000 514.000
44.80000 523.000
45.00000 529.000
45.20000 509.000
45.40000 500.000
45.60000 525.000
45.80000 498.000
46.00000 559.000
46.20000 609.000
46.40000 613.000
46.60000 541.000
46.80000 520.000
47.00000 466.000
47.20000 475.000
47.40000 487.000
47.60000 469.000
47.80000 449.000
48.00000 474.000
48.20000 419.000
48.40000 453.000
48.60000 492.000
48.80000 498.000
49.00000 464.000
49.20000 468.000
49.40000 451.000
49.60000 435.000
49.80000 492.000
50.00000 429.000
50.20000 469.000
50.40000 499.000
50.60000 547.000
50.80000 578.000
51.00000 640.000
51.20000 508.000
51.40000 526.000
51.60000 477.000
51.80000 526.000
52.00000 539.000
52.20000 682.000
52.40000 1104.000
52.60000 855.000
52.80000 531.000
53.00000 488.000
53.20000 472.000
53.40000 460.000
53.60000 529.000
53.80000 516.000
54.00000 434.000
54.20000 452.000
54.40000 404.000
54.60000 462.000
54.80000 471.000
55.00000 433.000
55.20000 503.000
55.40000 487.000
55.60000 481.000
55.80000 439.000
56.00000 427.000
56.20000 423.000
56.40000 443.000
56.60000 462.000
56.80000 444.000
57.00000 477.000
57.20000 446.000
57.40000 469.000
57.60000 418.000
57.80000 431.000
58.00000 440.000
58.20000 393.000
58.40000 375.000
58.60000 438.000
58.80000 463.000
59.00000 418.000
59.20000 394.000
59.40000 415.000
59.60000 433.000
59.80000 377.000
59.92000 414.000

File: 37.xy
5.00000 7993.000
5.24000 4224.000
5.48000 3640.000
5.72000 3291.000
5.96000 2816.000
6.20000 2591.000
6.44000 2391.000
6.68000 2063.000
6.92000 2070.000
7.16000 1816.000
7.40000 1727.000
7.64000 1600.000
7.88000 1460.000
8.12000 1439.000
8.36000 1459.000
8.60000 1432.000
8.84000 1719.000
9.08000 6121.000
9.32000 1637.000
9.56000 1412.000
9.80000 4500.000
10.04000 7432.000
10.28000 1842.000
10.52000 2372.000
10.76000 3036.000
11.00000 3104.000
11.24000 2135.000
11.48000 1433.000
11.72000 1120.000
11.96000 1030.000
12.20000 866.000
12.44000 897.000
12.68000 881.000
12.92000 986.000
13.16000 885.000
13.40000 983.000
13.64000 956.000
13.88000 932.000
14.12000 1006.000
14.36000 1358.000
14.60000 1900.000
14.84000 35063.000
15.08000 6703.000
15.32000 1235.000
15.56000 1026.000
15.80000 1315.000
16.04000 1006.000
16.28000 996.000
16.52000 1048.000
16.76000 991.000
17.00000 1005.000
17.24000 1107.000
17.48000 1101.000
17.72000 1143.000
17.96000 1341.000
18.20000 3296.000
18.44000 1990.000
18.68000 1185.000
18.92000 1196.000
19.16000 1239.000
19.40000 1264.000
19.64000 1383.000
19.88000 1380.000
20.12000 1366.000
20.36000 1477.000
20.60000 1547.000
20.84000 1516.000
21.08000 1565.000
21.32000 1691.000
21.56000 1808.000
21.80000 2017.000
22.04000 2103.000
22.28000 1956.000
22.52000 1971.000
22.76000 1785.000
23.00000 1660.000
23.24000 1611.000
23.48000 1704.000
23.72000 1712.000
23.96000 1672.000
24.20000 1693.000
24.44000 1702.000
24.68000 1778.000
24.92000 6232.000
25.16000 2090.000
25.40000 1736.000
25.64000 1706.000
25.88000 1719.000
26.12000 1615.000
26.36000 1631.000
26.60000 1601.000
26.84000 1567.000
27.08000 1603.000
27.32000 1731.000
27.56000 4098.000
27.80000 1757.000
28.04000 1463.000
28.28000 1479.000
28.52000 1441.000
28.76000 1565.000
29.00000 1485.000
29.24000 1421.000
29.48000 1503.000
29.72000 1500.000
29.96000 4675.000
30.20000 4168.000
30.44000 1549.000
30.68000 1412.000
30.92000 1347.000
31.16000 1502.000
31.40000 1269.000
31.64000 1360.000
31.88000 1372.000
32.12000 1428.000
32.36000 1224.000
32.60000 1206.000
32.84000 1235.000
33.08000 1312.000
33.32000 1340.000
33.56000 1302.000
33.80000 1271.000
34.04000 1085.000
34.28000 1122.000
34.52000 1156.000
34.76000 1307.000
35.00000 3164.000
35.24000 44991.000
35.48000 2823.000
35.72000 1248.000
35.96000 1027.000
36.20000 943.000
36.44000 940.000
36.68000 831.000
36.92000 839.000
37.16000 912.000
37.40000 783.000
37.64000 766.000
37.88000 767.000
38.12000 706.000
38.36000 776.000
38.60000 866.000
38.84000 796.000
39.08000 802.000
39.32000 856.000
39.56000 962.000
39.80000 909.000
40.04000 1177.000
40.28000 5257.000
40.52000 35338.000
40.76000 2021.000
41.00000 1022.000
41.24000 858.000
41.48000 794.000
41.72000 776.000
41.96000 721.000
42.20000 709.000
42.44000 701.000
42.68000 693.000
42.92000 692.000
43.16000 621.000
43.40000 653.000
43.64000 663.000
43.88000 715.000
44.12000 781.000
44.36000 863.000
44.60000 957.000
44.84000 928.000
45.08000 805.000
45.32000 708.000
45.56000 747.000
45.80000 1597.000
46.04000 762.000
46.28000 710.000
46.52000 660.000
46.76000 805.000
47.00000 698.000
47.24000 638.000
47.48000 583.000
47.72000 559.000
47.96000 621.000
48.20000 597.000
48.44000 590.000
48.68000 596.000
48.92000 625.000
49.16000 592.000
49.40000 530.000
49.64000 589.000
49.88000 573.000
50.12000 545.000
50.36000 558.000
50.60000 585.000
50.84000 576.000
51.08000 592.000
51.32000 732.000
51.56000 598.000
51.80000 544.000
52.04000 544.000
52.28000 552.000
52.52000 575.000
52.76000 560.000
53.00000 551.000
53.24000 509.000
53.48000 520.000
53.72000 604.000
53.96000 582.000
54.20000 578.000
54.44000 520.000
54.68000 516.000
54.92000 525.000
55.16000 575.000
55.40000 566.000
55.64000 549.000
55.88000 530.000
56.12000 586.000
56.36000 627.000
56.60000 1251.000
56.84000 3312.000
57.08000 958.000
57.32000 585.000
57.56000 567.000
57.80000 540.000
58.04000 565.000
58.28000 536.000
58.52000 550.000
58.76000 541.000
59.00000 527.000
59.24000 572.000
59.48000 540.000
59.72000 527.000
59.96000 513.000
60.20000 520.000
60.44000 481.000
60.68000 535.000
60.92000 521.000
61.16000 520.000
61.40000 543.000
61.64000 542.000
61.88000 571.000
62.12000 635.000
62.36000 879.000
62.60000 860.000
62.84000 583.000
63.08000 473.000
63.32000 517.000
63.56000 571.000
63.80000 501.000
64.04000 503.000
64.28000 508.000
64.52000 546.000
64.76000 551.000
65.00000 546.000
65.24000 530.000
65.48000 527.000
65.72000 552.000
65.96000 477.000
66.20000 474.000
66.44000 492.000
66.68000 514.000
66.92000 487.000
67.16000 483.000
67.40000 506.000
67.64000 514.000
67.88000 485.000
68.12000 551.000
68.36000 994.000
68.60000 624.000
68.84000 549.000
69.08000 583.000
69.32000 633.000
69.56000 624.000
69.80000 556.000
69.92000 550.000

File: 38.xy
5.00000 2780.000
5.20000 2672.000
5.40000 2612.000
5.60000 2451.000
5.80000 2465.000
6.00000 2337.000
6.20000 2214.000
6.40000 2190.000
6.60000 2131.000
6.80000 2016.000
7.00000 1994.000
7.20000 2003.000
7.40000 1881.000
7.60000 1809.000
7.80000 1810.000
8.00000 1855.000
8.20000 2807.000
8.40000 2980.000
8.60000 1707.000
8.80000 1624.000
9.00000 1653.000
9.20000 1603.000
9.40000 1648.000
9.60000 1583.000
9.80000 1462.000
10.00000 1573.000
10.20000 1645.000
10.40000 1530.000
10.60000 1487.000
10.80000 1389.000
11.00000 1325.000
11.20000 1427.000
11.40000 1353.000
11.60000 1309.000
11.80000 1611.000
12.00000 1728.000
12.20000 1708.000
12.40000 1657.000
12.60000 1850.000
12.80000 1996.000
13.00000 1933.000
13.20000 1874.000
13.40000 1515.000
13.60000 1389.000
13.80000 1650.000
14.00000 1892.000
14.20000 1463.000
14.40000 1303.000
14.60000 1215.000
14.80000 1216.000
15.00000 1231.000
15.20000 1308.000
15.40000 1247.000
15.60000 1195.000
15.80000 1149.000
16.00000 1209.000
16.20000 1297.000
16.40000 1517.000
16.60000 3437.000
16.80000 4294.000
17.00000 1830.000
17.20000 1348.000
17.40000 1306.000
17.60000 1293.000
17.80000 1387.000
18.00000 1320.000
18.20000 1404.000
18.40000 1415.000
18.60000 1381.000
18.80000 1410.000
19.00000 1489.000
19.20000 1466.000
19.40000 1492.000
19.60000 1472.000
19.80000 1465.000
20.00000 1563.000
20.20000 1643.000
20.40000 1616.000
20.60000 1675.000
20.80000 1696.000
21.00000 1815.000
21.20000 1790.000
21.40000 1810.000
21.60000 1804.000
21.80000 1773.000
22.00000 1743.000
22.20000 1845.000
22.40000 1760.000
22.60000 1839.000
22.80000 1786.000
23.00000 1885.000
23.20000 1982.000
23.40000 2127.000
23.60000 2087.000
23.80000 2015.000
24.00000 2071.000
24.20000 1933.000
24.40000 1892.000
24.60000 2106.000
24.80000 2421.000
25.00000 4460.000
25.20000 12676.000
25.40000 9466.000
25.60000 3397.000
25.80000 2434.000
26.00000 1871.000
26.20000 1877.000
26.40000 1998.000
26.60000 1831.000
26.80000 1828.000
27.00000 1808.000
27.20000 1862.000
27.40000 1898.000
27.60000 1800.000
27.80000 1704.000
28.00000 1940.000
28.20000 2207.000
28.40000 1995.000
28.60000 1944.000
28.80000 1663.000
29.00000 1771.000
29.20000 1671.000
29.40000 1705.000
29.60000 1594.000
29.80000 1480.000
30.00000 1470.000
30.20000 1501.000
30.40000 1524.000
30.60000 1544.000
30.80000 1538.000
31.00000 1524.000
31.20000 1458.000
31.40000 1456.000
31.60000 1377.000
31.80000 1441.000
32.00000 1362.000
32.20000 1376.000
32.40000 1341.000
32.60000 1444.000
32.80000 1607.000
33.00000 1995.000
33.20000 2056.000
33.40000 1579.000
33.60000 1311.000
33.80000 1208.000
34.00000 1181.000
34.20000 1172.000
34.40000 1082.000
34.60000 1095.000
34.80000 1055.000
35.00000 1016.000
35.20000 993.000
35.40000 931.000
35.60000 959.000
35.80000 967.000
36.00000 926.000
36.20000 954.000
36.40000 925.000
36.60000 940.000
36.80000 885.000
37.00000 848.000
37.20000 848.000
37.40000 936.000
37.60000 997.000
37.80000 1375.000
38.00000 1690.000
38.20000 1417.000
38.40000 1032.000
38.60000 831.000
38.80000 831.000
39.00000 803.000
39.20000 740.000
39.40000 723.000
39.60000 738.000
39.80000 794.000
40.00000 805.000
40.20000 763.000
40.40000 750.000
40.60000 799.000
40.80000 775.000
41.00000 759.000
41.20000 736.000
41.40000 713.000
41.60000 767.000
41.80000 733.000
42.00000 749.000
42.20000 827.000
42.40000 815.000
42.60000 937.000
42.80000 1196.000
43.00000 1068.000
43.20000 827.000
43.40000 812.000
43.60000 789.000
43.80000 789.000
44.00000 790.000
44.20000 739.000
44.40000 728.000
44.60000 756.000
44.80000 726.000
45.00000 769.000
45.20000 783.000
45.40000 708.000
45.60000 672.000
45.80000 723.000
46.00000 735.000
46.20000 674.000
46.40000 707.000
46.60000 661.000
46.80000 720.000
47.00000 686.000
47.20000 694.000
47.40000 645.000
47.60000 663.000
47.80000 653.000
48.00000 750.000
48.20000 671.000
48.40000 652.000
48.60000 625.000
48.80000 633.000
49.00000 719.000
49.20000 638.000
49.40000 629.000
49.60000 642.000
49.80000 647.000
50.00000 620.000
50.20000 682.000
50.40000 594.000
50.60000 658.000
50.80000 661.000
51.00000 608.000
51.20000 628.000
51.40000 648.000
51.60000 717.000
51.80000 1011.000
52.00000 1142.000
52.20000 994.000
52.40000 711.000
52.60000 667.000
52.80000 644.000
53.00000 675.000
53.20000 771.000
53.40000 695.000
53.60000 661.000
53.80000 609.000
54.00000 625.000
54.20000 617.000
54.40000 626.000
54.60000 635.000
54.80000 609.000
55.00000 634.000
55.20000 587.000
55.40000 638.000
55.60000 607.000
55.80000 625.000
56.00000 593.000
56.20000 625.000
56.40000 603.000
56.60000 607.000
56.80000 615.000
57.00000 607.000
57.20000 583.000
57.40000 611.000
57.60000 605.000
57.80000 613.000
58.00000 604.000
58.20000 639.000
58.40000 633.000
58.60000 587.000
58.80000 620.000
59.00000 613.000
59.20000 583.000
59.40000 607.000
59.60000 637.000
59.80000 550.000
59.92000 550.000

File: 39.xy
5.00000 4161.000
5.24000 3702.000
5.48000 3392.000
5.72000 3004.000
5.96000 2755.000
6.20000 2476.000
6.44000 2322.000
6.68000 2048.000
6.92000 1881.000
7.16000 1659.000
7.40000 1504.000
7.64000 1421.000
7.88000 1386.000
8.12000 1282.000
8.36000 1194.000
8.60000 1171.000
8.84000 1304.000
9.08000 1174.000
9.32000 1119.000
9.56000 1063.000
9.80000 1000.000
10.04000 950.000
10.28000 970.000
10.52000 988.000
10.76000 979.000
11.00000 1338.000
11.24000 899.000
11.48000 879.000
11.72000 909.000
11.96000 893.000
12.20000 928.000
12.44000 906.000
12.68000 1025.000
12.92000 950.000
13.16000 881.000
13.40000 840.000
13.64000 851.000
13.88000 849.000
14.12000 901.000
14.36000 888.000
14.60000 924.000
14.84000 897.000
15.08000 919.000
15.32000 1035.000
15.56000 1288.000
15.80000 1072.000
16.04000 1012.000
16.28000 1012.000
16.52000 982.000
16.76000 1016.000
17.00000 1007.000
17.24000 996.000
17.48000 1049.000
17.72000 1066.000
17.96000 1231.000
18.20000 1180.000
18.44000 1137.000
18.68000 1132.000
18.92000 1222.000
19.16000 1226.000
19.40000 1269.000
19.64000 1257.000
19.88000 1362.000
20.12000 1348.000
20.36000 1408.000
20.60000 1439.000
20.84000 1521.000
21.08000 1492.000
21.32000 1490.000
21.56000 1542.000
21.80000 1678.000
22.04000 1964.000
22.28000 2065.000
22.52000 1710.000
22.76000 1668.000
23.00000 1648.000
23.24000 1655.000
23.48000 1606.000
23.72000 1633.000
23.96000 1579.000
24.20000 1655.000
24.44000 1639.000
24.68000 1605.000
24.92000 1630.000
25.16000 1578.000
25.40000 1599.000
25.64000 1586.000
25.88000 1595.000
26.12000 1610.000
26.36000 1542.000
26.60000 1543.000
26.84000 1559.000
27.08000 1818.000
27.32000 1814.000
27.56000 1600.000
27.80000 1444.000
28.04000 1424.000
28.28000 1408.000
28.52000 1509.000
28.76000 1577.000
29.00000 1485.000
29.24000 1385.000
29.48000 1325.000
29.72000 1319.000
29.96000 1359.000
30.20000 1379.000
30.44000 1349.000
30.68000 1306.000
30.92000 1328.000
31.16000 1302.000
31.40000 1421.000
31.64000 1858.000
31.88000 1406.000
32.12000 1239.000
32.36000 1177.000
32.60000 1151.000
32.84000 1086.000
33.08000 1211.000
33.32000 1081.000
33.56000 1059.000
33.80000 986.000
34.04000 972.000
34.28000 971.000
34.52000 1000.000
34.76000 868.000
35.00000 955.000
35.24000 883.000
35.48000 901.000
35.72000 865.000
35.96000 793.000
36.20000 827.000
36.44000 765.000
36.68000 797.000
36.92000 834.000
37.16000 729.000
37.40000 788.000
37.64000 769.000
37.88000 754.000
38.12000 694.000
38.36000 694.000
38.60000 682.000
38.84000 774.000
39.08000 842.000
39.32000 745.000
39.56000 686.000
39.80000 707.000
40.04000 666.000
40.28000 681.000
40.52000 602.000
40.76000 644.000
41.00000 681.000
41.24000 696.000
41.48000 638.000
41.72000 653.000
41.96000 688.000
42.20000 705.000
42.44000 636.000
42.68000 664.000
42.92000 681.000
43.16000 629.000
43.40000 698.000
43.64000 678.000
43.88000 682.000
44.12000 617.000
44.36000 657.000
44.60000 710.000
44.84000 776.000
45.08000 706.000
45.32000 769.000
45.56000 707.000
45.80000 708.000
46.04000 661.000
46.28000 609.000
46.52000 588.000
46.76000 586.000
47.00000 620.000
47.24000 610.000
47.48000 552.000
47.72000 609.000
47.96000 564.000
48.20000 584.000
48.44000 587.000
48.68000 594.000
48.92000 581.000
49.16000 591.000
49.40000 592.000
49.64000 577.000
49.88000 582.000
50.12000 562.000
50.36000 576.000
50.60000 557.000
50.84000 597.000
51.08000 544.000
51.32000 569.000
51.56000 529.000
51.80000 551.000
52.04000 533.000
52.28000 540.000
52.52000 518.000
52.76000 523.000
53.00000 522.000
53.24000 545.000
53.48000 615.000
53.72000 576.000
53.96000 526.000
54.20000 538.000
54.44000 537.000
54.68000 539.000
54.92000 520.000
55.16000 551.000
55.40000 520.000
55.64000 560.000
55.88000 577.000
56.12000 559.000
56.36000 571.000
56.60000 544.000
56.84000 559.000
57.08000 528.000
57.32000 585.000
57.56000 518.000
57.80000 563.000
58.04000 556.000
58.28000 536.000
58.52000 547.000
58.76000 561.000
59.00000 529.000
59.24000 507.000
59.48000 547.000
59.72000 539.000
59.96000 473.000
60.20000 527.000
60.44000 517.000
60.68000 553.000
60.92000 549.000
61.16000 526.000
61.40000 542.000
61.64000 566.000
61.88000 531.000
62.12000 525.000
62.36000 563.000
62.60000 547.000
62.84000 534.000
63.08000 541.000
63.32000 508.000
63.56000 523.000
63.80000 540.000
64.04000 524.000
64.28000 501.000
64.52000 487.000
64.76000 536.000
65.00000 548.000
65.24000 474.000
65.48000 516.000
65.72000 512.000
65.96000 526.000
66.20000 542.000
66.44000 476.000
66.68000 481.000
66.92000 510.000
67.16000 496.000
67.40000 487.000
67.64000 502.000
67.88000 444.000
68.12000 463.000
68.36000 477.000
68.60000 460.000
68.84000 479.000
69.08000 433.000
69.32000 486.000
69.56000 542.000
69.80000 506.000
69.92000 453.000