Folder: campaign1/XRD

Note: README.md
# campaign1
raw data for campaign 1.0

File: 1.xy
5.00000 641.000
5.20000 591.000
5.40000 615.000
5.60000 564.000
5.80000 531.000
6.00000 505.000
6.20000 483.000
6.40000 469.000
6.60000 433.000
6.80000 463.000
7.00000 424.000
7.20000 438.000
7.40000 436.000
7.60000 410.000
7.80000 390.000
8.00000 335.000
8.20000 359.000
8.40000 342.000
8.60000 328.000
8.80000 334.000
9.00000 308.000
9.20000 341.000
9.40000 303.000
9.60000 322.000
9.80000 298.000
10.00000 283.000
10.20000 295.000
10.40000 275.000
10.60000 294.000
10.80000 291.000
11.00000 271.000
11.20000 323.000
11.40000 376.000
11.60000 354.000
11.80000 380.000
12.00000 337.000
12.20000 336.000
12.40000 358.000
12.60000 434.000
12.80000 502.000
13.00000 609.000
13.20000 938.000
13.40000 1305.000
13.60000 2160.000
13.80000 3910.000
14.00000 2305.000
14.20000 877.000
14.40000 545.000
14.60000 407.000
14.80000 323.000
15.00000 298.000
15.20000 279.000
15.40000 227.000
15.60000 232.000
15.80000 218.000
16.00000 194.000
16.20000 217.000
16.40000 173.000
16.60000 156.000
16.80000 202.000
17.00000 194.000
17.20000 171.000
17.40000 174.000
17.60000 174.000
17.80000 188.000
18.00000 165.000
18.20000 166.000
18.40000 169.000
18.60000 171.000
18.80000 197.000
19.00000 160.000
19.20000 184.000
19.40000 292.000
19.60000 370.000
19.80000 389.000
20.00000 263.000
20.20000 172.000
20.40000 200.000
20.60000 199.000
20.80000 161.000
21.00000 188.000
21.20000 162.000
21.40000 163.000
21.60000 165.000
21.80000 186.000
22.00000 153.000
22.20000 172.000
22.40000 169.000
22.60000 184.000
22.80000 176.000
23.00000 165.000
23.20000 186.000
23.40000 176.000
23.60000 238.000
23.80000 418.000
24.00000 811.000
24.20000 956.000
24.40000 373.000
24.60000 233.000
24.80000 224.000
25.00000 207.000
25.20000 188.000
25.40000 198.000
25.60000 162.000
25.80000 191.000
26.00000 185.000
26.20000 197.000
26.40000 205.000
26.60000 236.000
26.80000 237.000
27.00000 296.000
27.20000 309.000
27.40000 428.000
27.60000 628.000
27.80000 1135.000
28.00000 2610.000
28.20000 1099.000
28.40000 516.000
28.60000 360.000
28.80000 258.000
29.00000 228.000
29.20000 213.000
29.40000 201.000
29.60000 163.000
29.80000 179.000
30.00000 182.000
30.20000 173.000
30.40000 158.000
30.60000 186.000
30.80000 196.000
31.00000 468.000
31.20000 1594.000
31.40000 1701.000
31.60000 495.000
31.80000 198.000
32.00000 171.000
32.20000 142.000
32.40000 137.000
32.60000 141.000
32.80000 108.000
33.00000 135.000
33.20000 120.000
33.40000 110.000
33.60000 107.000
33.80000 109.000
34.00000 113.000
34.20000 131.000
34.40000 222.000
34.60000 229.000
34.80000 129.000
35.00000 131.000
35.20000 94.000
35.40000 122.000
35.60000 128.000
35.80000 95.000
36.00000 95.000
36.20000 91.000
36.40000 88.000
36.60000 100.000
36.80000 95.000
37.00000 82.000
37.20000 102.000
37.40000 114.000
37.60000 102.000
37.80000 110.000
38.00000 109.000
38.20000 119.000
38.40000 113.000
38.60000 118.000
38.80000 114.000
39.00000 123.000
39.20000 159.000
39.40000 182.000
39.60000 254.000
39.80000 363.000
40.00000 748.000
40.20000 561.000
40.40000 217.000
40.60000 171.000
40.80000 160.000
41.00000 122.000
41.20000 135.000
41.40000 134.000
41.60000 146.000
41.80000 131.000
42.00000 168.000
42.20000 201.000
42.40000 463.000
42.60000 741.000
42.80000 327.000
43.00000 172.000
43.20000 128.000
43.40000 116.000
43.60000 106.000
43.80000 98.000
44.00000 87.000
44.20000 98.000
44.40000 84.000
44.60000 103.000
44.80000 110.000
45.00000 105.000
45.20000 103.000
45.40000 94.000
45.60000 82.000
45.80000 70.000
46.00000 77.000
46.20000 63.000
46.40000 78.000
46.60000 83.000
46.80000 76.000
47.00000 78.000
47.20000 86.000
47.40000 106.000
47.60000 95.000
47.80000 65.000
48.00000 76.000
48.20000 85.000
48.40000 71.000
48.60000 78.000
48.80000 92.000
49.00000 105.000
49.20000 132.000
49.40000 159.000
49.60000 177.000
49.80000 130.000
50.00000 82.000
50.20000 90.000
50.40000 72.000
50.60000 75.000
50.80000 75.000
51.00000 88.000
51.20000 86.000
51.40000 92.000
51.60000 136.000
51.80000 183.000
52.00000 154.000
52.20000 84.000
52.40000 73.000
52.60000 60.000
52.80000 54.000
53.00000 71.000
53.20000 75.000
53.40000 71.000
53.60000 79.000
53.80000 85.000
54.00000 88.000
54.20000 82.000
54.40000 55.000
54.60000 56.000
54.80000 48.000
55.00000 62.000
55.20000 65.000
55.40000 62.000
55.60000 50.000
55.80000 56.000
56.00000 53.000
56.20000 64.000
56.40000 59.000
56.60000 58.000
56.80000 67.000
57.00000 62.000
57.20000 83.000
57.40000 70.000
57.60000 70.000
57.80000 84.000
58.00000 106.000
58.20000 86.000
58.40000 86.000
58.60000 92.000
58.80000 62.000
59.00000 68.000
59.20000 63.000
59.40000 71.000
59.60000 111.000
59.80000 176.000
59.92000 256.000

File: 2.xy
5.00000 591.000
5.20000 619.000
5.40000 549.000
5.60000 548.000
5.80000 542.000
6.00000 531.000
6.20000 482.000
6.40000 482.000
6.60000 465.000
6.80000 449.000
7.00000 423.000
7.20000 460.000
7.40000 423.000
7.60000 369.000
7.80000 365.000
8.00000 359.000
8.20000 356.000
8.40000 347.000
8.60000 347.000
8.80000 334.000
9.00000 344.000
9.20000 349.000
9.40000 349.000
9.60000 302.000
9.80000 325.000
10.00000 279.000
10.20000 289.000
10.40000 267.000
10.60000 304.000
10.80000 302.000
11.00000 321.000
11.20000 428.000
11.40000 993.000
11.60000 860.000
11.80000 735.000
12.00000 848.000
12.20000 715.000
12.40000 363.000
12.60000 352.000
12.80000 328.000
13.00000 352.000
13.20000 447.000
13.40000 595.000
13.60000 894.000
13.80000 1731.000
14.00000 1879.000
14.20000 539.000
14.40000 261.000
14.60000 248.000
14.80000 214.000
15.00000 188.000
15.20000 204.000
15.40000 212.000
15.60000 206.000
15.80000 182.000
16.00000 174.000
16.20000 201.000
16.40000 169.000
16.60000 175.000
16.80000 180.000
17.00000 151.000
17.20000 195.000
17.40000 177.000
17.60000 166.000
17.80000 182.000
18.00000 168.000
18.20000 176.000
18.40000 174.000
18.60000 161.000
18.80000 176.000
19.00000 186.000
19.20000 188.000
19.40000 197.000
19.60000 299.000
19.80000 579.000
20.00000 245.000
20.20000 176.000
20.40000 197.000
20.60000 179.000
20.80000 167.000
21.00000 165.000
21.20000 190.000
21.40000 177.000
21.60000 183.000
21.80000 171.000
22.00000 177.000
22.20000 195.000
22.40000 182.000
22.60000 172.000
22.80000 190.000
23.00000 186.000
23.20000 194.000
23.40000 197.000
23.60000 218.000
23.80000 210.000
24.00000 346.000
24.20000 770.000
24.40000 726.000
24.60000 315.000
24.80000 197.000
25.00000 181.000
25.20000 216.000
25.40000 177.000
25.60000 188.000
25.80000 231.000
26.00000 276.000
26.20000 191.000
26.40000 195.000
26.60000 165.000
26.80000 174.000
27.00000 206.000
27.20000 200.000
27.40000 211.000
27.60000 256.000
27.80000 403.000
28.00000 945.000
28.20000 1173.000
28.40000 357.000
28.60000 223.000
28.80000 167.000
29.00000 162.000
29.20000 144.000
29.40000 170.000
29.60000 147.000
29.80000 132.000
30.00000 140.000
30.20000 169.000
30.40000 178.000
30.60000 206.000
30.80000 286.000
31.00000 379.000
31.20000 423.000
31.40000 982.000
31.60000 1483.000
31.80000 529.000
32.00000 212.000
32.20000 159.000
32.40000 140.000
32.60000 128.000
32.80000 125.000
33.00000 128.000
33.20000 88.000
33.40000 113.000
33.60000 103.000
33.80000 96.000
34.00000 113.000
34.20000 117.000
34.40000 114.000
34.60000 227.000
34.80000 203.000
35.00000 116.000
35.20000 107.000
35.40000 91.000
35.60000 94.000
35.80000 98.000
36.00000 86.000
36.20000 109.000
36.40000 103.000
36.60000 91.000
36.80000 120.000
37.00000 86.000
37.20000 106.000
37.40000 91.000
37.60000 80.000
37.80000 109.000
38.00000 93.000
38.20000 74.000
38.40000 98.000
38.60000 117.000
38.80000 127.000
39.00000 84.000
39.20000 100.000
39.40000 95.000
39.60000 107.000
39.80000 136.000
40.00000 213.000
40.20000 725.000
40.40000 622.000
40.60000 299.000
40.80000 143.000
41.00000 126.000
41.20000 124.000
41.40000 115.000
41.60000 115.000
41.80000 104.000
42.00000 113.000
42.20000 145.000
42.40000 237.000
42.60000 463.000
42.80000 1033.000
43.00000 536.000
43.20000 247.000
43.40000 144.000
43.60000 99.000
43.80000 116.000
44.00000 116.000
44.20000 95.000
44.40000 101.000
44.60000 96.000
44.80000 91.000
45.00000 93.000
45.20000 111.000
45.40000 93.000
45.60000 89.000
45.80000 81.000
46.00000 85.000
46.20000 78.000
46.40000 78.000
46.60000 90.000
46.80000 82.000
47.00000 79.000
47.20000 85.000
47.40000 93.000
47.60000 123.000
47.80000 92.000
48.00000 78.000
48.20000 69.000
48.40000 72.000
48.60000 79.000
48.80000 79.000
49.00000 78.000
49.20000 75.000
49.40000 98.000
49.60000 147.000
49.80000 329.000
50.00000 286.000
50.20000 145.000
50.40000 104.000
50.60000 81.000
50.80000 87.000
51.00000 77.000
51.20000 78.000
51.40000 100.000
51.60000 132.000
51.80000 163.000
52.00000 285.000
52.20000 209.000
52.40000 117.000
52.60000 100.000
52.80000 71.000
53.00000 68.000
53.20000 63.000
53.40000 55.000
53.60000 59.000
53.80000 72.000
54.00000 89.000
54.20000 96.000
54.40000 77.000
54.60000 67.000
54.80000 59.000
55.00000 55.000
55.20000 49.000
55.40000 68.000
55.60000 61.000
55.80000 65.000
56.00000 57.000
56.20000 52.000
56.40000 62.000
56.60000 61.000
56.80000 56.000
57.00000 79.000
57.20000 64.000
57.40000 78.000
57.60000 66.000
57.80000 71.000
58.00000 85.000
58.20000 116.000
58.40000 86.000
58.60000 72.000
58.80000 72.000
59.00000 83.000
59.20000 53.000
59.40000 65.000
59.60000 63.000
59.80000 80.000
59.92000 109.000

File: 3.xy
5.00000 578.000
5.20000 558.000
5.40000 589.000
5.60000 545.000
5.80000 523.000
6.00000 502.000
6.20000 492.000
6.40000 444.000
6.60000 455.000
6.80000 442.000
7.00000 449.000
7.20000 441.000
7.40000 373.000
7.60000 408.000
7.80000 380.000
8.00000 332.000
8.20000 335.000
8.40000 316.000
8.60000 313.000
8.80000 365.000
9.00000 335.000
9.20000 317.000
9.40000 304.000
9.60000 284.000
9.80000 276.000
10.00000 284.000
10.20000 278.000
10.40000 277.000
10.60000 267.000
10.80000 276.000
11.00000 279.000
11.20000 332.000
11.40000 471.000
11.60000 577.000
11.80000 522.000
12.00000 592.000
12.20000 645.000
12.40000 645.000
12.60000 611.000
12.80000 571.000
13.00000 640.000
13.20000 656.000
13.40000 845.000
13.60000 1219.000
13.80000 2028.000
14.00000 3516.000
14.20000 1537.000
14.40000 580.000
14.60000 354.000
14.80000 282.000
15.00000 239.000
15.20000 222.000
15.40000 219.000
15.60000 212.000
15.80000 181.000
16.00000 199.000
16.20000 204.000
16.40000 164.000
16.60000 188.000
16.80000 153.000
17.00000 191.000
17.20000 182.000
17.40000 208.000
17.60000 168.000
17.80000 180.000
18.00000 183.000
18.20000 165.000
18.40000 155.000
18.60000 183.000
18.80000 169.000
19.00000 195.000
19.20000 188.000
19.40000 188.000
19.60000 248.000
19.80000 450.000
20.00000 677.000
20.20000 210.000
20.40000 215.000
20.60000 170.000
20.80000 179.000
21.00000 183.000
21.20000 186.000
21.40000 175.000
21.60000 183.000
21.80000 188.000
22.00000 200.000
22.20000 184.000
22.40000 172.000
22.60000 165.000
22.80000 150.000
23.00000 156.000
23.20000 182.000
23.40000 195.000
23.60000 187.000
23.80000 193.000
24.00000 213.000
24.20000 318.000
24.40000 822.000
24.60000 648.000
24.80000 334.000
25.00000 248.000
25.20000 222.000
25.40000 212.000
25.60000 195.000
25.80000 193.000
26.00000 232.000
26.20000 252.000
26.40000 201.000
26.60000 201.000
26.80000 208.000
27.00000 250.000
27.20000 250.000
27.40000 292.000
27.60000 336.000
27.80000 467.000
28.00000 754.000
28.20000 1474.000
28.40000 1881.000
28.60000 625.000
28.80000 318.000
29.00000 230.000
29.20000 219.000
29.40000 197.000
29.60000 190.000
29.80000 177.000
30.00000 156.000
30.20000 170.000
30.40000 174.000
30.60000 161.000
30.80000 186.000
31.00000 234.000
31.20000 299.000
31.40000 402.000
31.60000 1027.000
31.80000 1939.000
32.00000 652.000
32.20000 235.000
32.40000 186.000
32.60000 120.000
32.80000 127.000
33.00000 111.000
33.20000 123.000
33.40000 109.000
33.60000 109.000
33.80000 111.000
34.00000 117.000
34.20000 98.000
34.40000 130.000
34.60000 137.000
34.80000 242.000
35.00000 322.000
35.20000 183.000
35.40000 113.000
35.60000 90.000
35.80000 114.000
36.00000 94.000
36.20000 109.000
36.40000 116.000
36.60000 110.000
36.80000 110.000
37.00000 82.000
37.20000 81.000
37.40000 104.000
37.60000 98.000
37.80000 82.000
38.00000 106.000
38.20000 89.000
38.40000 96.000
38.60000 117.000
38.80000 123.000
39.00000 98.000
39.20000 109.000
39.40000 116.000
39.60000 117.000
39.80000 129.000
40.00000 120.000
40.20000 166.000
40.40000 450.000
40.60000 935.000
40.80000 377.000
41.00000 170.000
41.20000 144.000
41.40000 139.000
41.60000 116.000
41.80000 136.000
42.00000 100.000
42.20000 126.000
42.40000 114.000
42.60000 144.000
42.80000 224.000
43.00000 732.000
43.20000 741.000
43.40000 259.000
43.60000 153.000
43.80000 109.000
44.00000 85.000
44.20000 103.000
44.40000 94.000
44.60000 88.000
44.80000 89.000
45.00000 87.000
45.20000 83.000
45.40000 87.000
45.60000 104.000
45.80000 104.000
46.00000 84.000
46.20000 81.000
46.40000 94.000
46.60000 59.000
46.80000 75.000
47.00000 72.000
47.20000 77.000
47.40000 73.000
47.60000 72.000
47.80000 95.000
48.00000 103.000
48.20000 75.000
48.40000 78.000
48.60000 71.000
48.80000 60.000
49.00000 60.000
49.20000 80.000
49.40000 71.000
49.60000 78.000
49.80000 91.000
50.00000 136.000
50.20000 238.000
50.40000 175.000
50.60000 96.000
50.80000 71.000
51.00000 81.000
51.20000 77.000
51.40000 61.000
51.60000 72.000
51.80000 75.000
52.00000 81.000
52.20000 109.000
52.40000 235.000
52.60000 157.000
52.80000 83.000
53.00000 86.000
53.20000 74.000
53.40000 68.000
53.60000 73.000
53.80000 58.000
54.00000 53.000
54.20000 57.000
54.40000 79.000
54.60000 106.000
54.80000 77.000
55.00000 71.000
55.20000 47.000
55.40000 46.000
55.60000 61.000
55.80000 47.000
56.00000 60.000
56.20000 59.000
56.40000 62.000
56.60000 43.000
56.80000 51.000
57.00000 54.000
57.20000 64.000
57.40000 68.000
57.60000 58.000
57.80000 56.000
58.00000 71.000
58.20000 75.000
58.40000 88.000
58.60000 106.000
58.80000 97.000
59.00000 80.000
59.20000 66.000
59.40000 58.000
59.60000 57.000
59.80000 51.000
59.92000 67.000

File: 4.xy
5.00000 575.000
5.20000 564.000
5.40000 573.000
5.60000 530.000
5.80000 499.000
6.00000 475.000
6.20000 450.000
6.40000 469.000
6.60000 465.000
6.80000 410.000
7.00000 410.000
7.20000 417.000
7.40000 411.000
7.60000 403.000
7.80000 372.000
8.00000 399.000
8.20000 378.000
8.40000 365.000
8.60000 355.000
8.80000 350.000
9.00000 337.000
9.20000 325.000
9.40000 314.000
9.60000 274.000
9.80000 323.000
10.00000 315.000
10.20000 307.000
10.40000 285.000
10.60000 274.000
10.80000 289.000
11.00000 243.000
11.20000 275.000
11.40000 306.000
11.60000 341.000
11.80000 271.000
12.00000 274.000
12.20000 289.000
12.40000 300.000
12.60000 315.000
12.80000 315.000
13.00000 357.000
13.20000 444.000
13.40000 638.000
13.60000 967.000
13.80000 1848.000
14.00000 4886.000
14.20000 7043.000
14.40000 780.000
14.60000 370.000
14.80000 280.000
15.00000 238.000
15.20000 242.000
15.40000 229.000
15.60000 191.000
15.80000 186.000
16.00000 181.000
16.20000 178.000
16.40000 195.000
16.60000 188.000
16.80000 211.000
17.00000 175.000
17.20000 188.000
17.40000 146.000
17.60000 181.000
17.80000 184.000
18.00000 190.000
18.20000 172.000
18.40000 166.000
18.60000 184.000
18.80000 184.000
19.00000 172.000
19.20000 182.000
19.40000 202.000
19.60000 228.000
19.80000 322.000
20.00000 756.000
20.20000 536.000
20.40000 207.000
20.60000 187.000
20.80000 223.000
21.00000 191.000
21.20000 206.000
21.40000 185.000
21.60000 207.000
21.80000 196.000
22.00000 205.000
22.20000 204.000
22.40000 246.000
22.60000 198.000
22.80000 215.000
23.00000 185.000
23.20000 181.000
23.40000 203.000
23.60000 216.000
23.80000 215.000
24.00000 234.000
24.20000 237.000
24.40000 357.000
24.60000 831.000
24.80000 592.000
25.00000 243.000
25.20000 250.000
25.40000 233.000
25.60000 216.000
25.80000 237.000
26.00000 217.000
26.20000 201.000
26.40000 194.000
26.60000 195.000
26.80000 209.000
27.00000 228.000
27.20000 232.000
27.40000 273.000
27.60000 218.000
27.80000 243.000
28.00000 321.000
28.20000 547.000
28.40000 1753.000
28.60000 3632.000
28.80000 658.000
29.00000 285.000
29.20000 197.000
29.40000 173.000
29.60000 174.000
29.80000 155.000
30.00000 148.000
30.20000 158.000
30.40000 170.000
30.60000 201.000
30.80000 147.000
31.00000 170.000
31.20000 185.000
31.40000 201.000
31.60000 243.000
31.80000 797.000
32.00000 2725.000
32.20000 988.000
32.40000 221.000
32.60000 161.000
32.80000 161.000
33.00000 109.000
33.20000 124.000
33.40000 112.000
33.60000 115.000
33.80000 133.000
34.00000 105.000
34.20000 128.000
34.40000 115.000
34.60000 109.000
34.80000 124.000
35.00000 204.000
35.20000 520.000
35.40000 222.000
35.60000 110.000
35.80000 98.000
36.00000 86.000
36.20000 98.000
36.40000 107.000
36.60000 90.000
36.80000 110.000
37.00000 104.000
37.20000 101.000
37.40000 104.000
37.60000 111.000
37.80000 120.000
38.00000 93.000
38.20000 94.000
38.40000 121.000
38.60000 93.000
38.80000 102.000
39.00000 120.000
39.20000 102.000
39.40000 113.000
39.60000 114.000
39.80000 112.000
40.00000 112.000
40.20000 131.000
40.40000 135.000
40.60000 243.000
40.80000 1058.000
41.00000 860.000
41.20000 204.000
41.40000 137.000
41.60000 133.000
41.80000 108.000
42.00000 115.000
42.20000 113.000
42.40000 81.000
42.60000 99.000
42.80000 126.000
43.00000 131.000
43.20000 230.000
43.40000 817.000
43.60000 682.000
43.80000 188.000
44.00000 111.000
44.20000 117.000
44.40000 100.000
44.60000 78.000
44.80000 84.000
45.00000 89.000
45.20000 91.000
45.40000 83.000
45.60000 94.000
45.80000 109.000
46.00000 135.000
46.20000 83.000
46.40000 77.000
46.60000 76.000
46.80000 85.000
47.00000 95.000
47.20000 78.000
47.40000 66.000
47.60000 83.000
47.80000 76.000
48.00000 68.000
48.20000 78.000
48.40000 101.000
48.60000 66.000
48.80000 57.000
49.00000 70.000
49.20000 70.000
49.40000 79.000
49.60000 71.000
49.80000 72.000
50.00000 81.000
50.20000 91.000
50.40000 128.000
50.60000 239.000
50.80000 182.000
51.00000 102.000
51.20000 76.000
51.40000 68.000
51.60000 77.000
51.80000 56.000
52.00000 67.000
52.20000 76.000
52.40000 70.000
52.60000 93.000
52.80000 205.000
53.00000 216.000
53.20000 98.000
53.40000 77.000
53.60000 62.000
53.80000 65.000
54.00000 81.000
54.20000 57.000
54.40000 71.000
54.60000 64.000
54.80000 81.000
55.00000 123.000
55.20000 89.000
55.40000 56.000
55.60000 77.000
55.80000 57.000
56.00000 65.000
56.20000 60.000
56.40000 68.000
56.60000 63.000
56.80000 72.000
57.00000 46.000
57.20000 47.000
57.40000 58.000
57.60000 45.000
57.80000 60.000
58.00000 65.000
58.20000 57.000
58.40000 67.000
58.60000 67.000
58.80000 62.000
59.00000 74.000
59.20000 122.000
59.40000 89.000
59.60000 73.000
59.80000 65.000
59.92000 61.000

File: 5.xy
5.00000 559.000
5.20000 557.000
5.40000 556.000
5.60000 491.000
5.80000 518.000
6.00000 481.000
6.20000 470.000
6.40000 440.000
6.60000 431.000
6.80000 413.000
7.00000 405.000
7.20000 398.000
7.40000 396.000
7.60000 401.000
7.80000 393.000
8.00000 374.000
8.20000 345.000
8.40000 334.000
8.60000 364.000
8.80000 314.000
9.00000 303.000
9.20000 328.000
9.40000 257.000
9.60000 306.000
9.80000 277.000
10.00000 287.000
10.20000 290.000
10.40000 253.000
10.60000 269.000
10.80000 266.000
11.00000 260.000
11.20000 228.000
11.40000 245.000
11.60000 319.000
11.80000 259.000
12.00000 259.000
12.20000 271.000
12.40000 254.000
12.60000 258.000
12.80000 258.000
13.00000 267.000
13.20000 337.000
13.40000 396.000
13.60000 639.000
13.80000 1157.000
14.00000 2702.000
14.20000 7677.000
14.40000 1297.000
14.60000 336.000
14.80000 255.000
15.00000 218.000
15.20000 225.000
15.40000 234.000
15.60000 190.000
15.80000 174.000
16.00000 188.000
16.20000 205.000
16.40000 212.000
16.60000 170.000
16.80000 194.000
17.00000 197.000
17.20000 174.000
17.40000 164.000
17.60000 191.000
17.80000 168.000
18.00000 198.000
18.20000 185.000
18.40000 198.000
18.60000 206.000
18.80000 173.000
19.00000 185.000
19.20000 195.000
19.40000 175.000
19.60000 223.000
19.80000 281.000
20.00000 623.000
20.20000 1510.000
20.40000 339.000
20.60000 211.000
20.80000 198.000
21.00000 196.000
21.20000 172.000
21.40000 216.000
21.60000 180.000
21.80000 193.000
22.00000 203.000
22.20000 170.000
22.40000 187.000
22.60000 185.000
22.80000 164.000
23.00000 158.000
23.20000 197.000
23.40000 181.000
23.60000 174.000
23.80000 173.000
24.00000 177.000
24.20000 189.000
24.40000 247.000
24.60000 313.000
24.80000 845.000
25.00000 317.000
25.20000 185.000
25.40000 173.000
25.60000 166.000
25.80000 155.000
26.00000 179.000
26.20000 177.000
26.40000 166.000
26.60000 165.000
26.80000 165.000
27.00000 176.000
27.20000 149.000
27.40000 209.000
27.60000 212.000
27.80000 209.000
28.00000 189.000
28.20000 234.000
28.40000 547.000
28.60000 1987.000
28.80000 2314.000
29.00000 358.000
29.20000 218.000
29.40000 163.000
29.60000 170.000
29.80000 159.000
30.00000 154.000
30.20000 169.000
30.40000 156.000
30.60000 151.000
30.80000 181.000
31.00000 150.000
31.20000 179.000
31.40000 164.000
31.60000 169.000
31.80000 280.000
32.00000 878.000
32.20000 3037.000
32.40000 630.000
32.60000 215.000
32.80000 150.000
33.00000 115.000
33.20000 133.000
33.40000 117.000
33.60000 135.000
33.80000 104.000
34.00000 127.000
34.20000 113.000
34.40000 118.000
34.60000 119.000
34.80000 114.000
35.00000 103.000
35.20000 219.000
35.40000 560.000
35.60000 186.000
35.80000 106.000
36.00000 79.000
36.20000 90.000
36.40000 86.000
36.60000 109.000
36.80000 107.000
37.00000 95.000
37.20000 89.000
37.40000 86.000
37.60000 85.000
37.80000 86.000
38.00000 86.000
38.20000 93.000
38.40000 94.000
38.60000 89.000
38.80000 106.000
39.00000 93.000
39.20000 105.000
39.40000 81.000
39.60000 108.000
39.80000 109.000
40.00000 100.000
40.20000 114.000
40.40000 119.000
40.60000 141.000
40.80000 218.000
41.00000 953.000
41.20000 927.000
41.40000 193.000
41.60000 118.000
41.80000 121.000
42.00000 94.000
42.20000 102.000
42.40000 106.000
42.60000 99.000
42.80000 116.000
43.00000 121.000
43.20000 114.000
43.40000 176.000
43.60000 611.000
43.80000 712.000
44.00000 174.000
44.20000 101.000
44.40000 118.000
44.60000 96.000
44.80000 92.000
45.00000 77.000
45.20000 66.000
45.40000 68.000
45.60000 75.000
45.80000 101.000
46.00000 100.000
46.20000 123.000
46.40000 78.000
46.60000 69.000
46.80000 61.000
47.00000 59.000
47.20000 72.000
47.40000 68.000
47.60000 80.000
47.80000 75.000
48.00000 67.000
48.20000 70.000
48.40000 62.000
48.60000 61.000
48.80000 80.000
49.00000 53.000
49.20000 57.000
49.40000 80.000
49.60000 63.000
49.80000 48.000
50.00000 75.000
50.20000 55.000
50.40000 61.000
50.60000 82.000
50.80000 222.000
51.00000 255.000
51.20000 94.000
51.40000 80.000
51.60000 68.000
51.80000 64.000
52.00000 77.000
52.20000 63.000
52.40000 58.000
52.60000 73.000
52.80000 70.000
53.00000 125.000
53.20000 234.000
53.40000 111.000
53.60000 85.000
53.80000 74.000
54.00000 54.000
54.20000 71.000
54.40000 60.000
54.60000 68.000
54.80000 63.000
55.00000 61.000
55.20000 102.000
55.40000 103.000
55.60000 81.000
55.80000 43.000
56.00000 69.000
56.20000 65.000
56.40000 48.000
56.60000 58.000
56.80000 53.000
57.00000 60.000
57.20000 70.000
57.40000 61.000
57.60000 56.000
57.80000 66.000
58.00000 57.000
58.20000 62.000
58.40000 52.000
58.60000 60.000
58.80000 58.000
59.00000 49.000
59.20000 66.000
59.40000 96.000
59.60000 130.000
59.80000 76.000
59.92000 66.000